{"_links":{"parentBiomedicalConcept":{"href":"/mdr/bc/packages/2023-10-03/biomedicalconcepts/C64821","title":"Macrocyte Count","type":"Biomedical Concept"},"parentPackage":{"href":"/mdr/specializations/sdtm/packages/2023-10-03/datasetspecializations","title":"SDTM Dataset Specialization Package Effective 2023-10-03","type":"SDTM Dataset Specialization Package"},"self":{"href":"/mdr/specializations/sdtm/packages/2023-10-03/datasetspecializations/MACROCYBLD","title":"Macrocytes in Blood","type":"SDTM Dataset Specialization"}},"datasetSpecializationId":"MACROCYBLD","domain":"LB","shortName":"Macrocytes in Blood","source":"LB.LBTESTCD","sdtmigStartVersion":"3-2","sdtmigEndVersion":"","variables":[{"name":"LBTESTCD","isNonStandard":false,"codelist":{"conceptId":"C65047","submissionValue":"LBTESTCD","href":"https://ncithesaurus.nci.nih.gov/ncitbrowser/ConceptReport.jsp?dictionary=NCI_Thesaurus&ns=ncit&code=C65047"},"assignedTerm":{"conceptId":"C64821","value":"MACROCY"},"role":"Topic","relationship":{"subject":"LBTESTCD","linkingPhrase":"is the code for the value in","predicateTerm":"IS_DECODED_BY","object":"LBTEST"},"mandatoryVariable":true,"mandatoryValue":false,"comparator":"EQ"},{"name":"LBTEST","isNonStandard":false,"codelist":{"conceptId":"C67154","submissionValue":"LBTEST","href":"https://ncithesaurus.nci.nih.gov/ncitbrowser/ConceptReport.jsp?dictionary=NCI_Thesaurus&ns=ncit&code=C67154"},"assignedTerm":{"conceptId":"C64821","value":"Macrocytes"},"role":"Qualifier","relationship":{"subject":"LBTEST","linkingPhrase":"decodes the value in","predicateTerm":"DECODES","object":"LBTESTCD"},"mandatoryVariable":true,"mandatoryValue":false},{"name":"LBCAT","isNonStandard":false,"assignedTerm":{"value":"HEMATOLOGY"},"role":"Qualifier","relationship":{"subject":"LBCAT","linkingPhrase":"groups values in","predicateTerm":"GROUPS","object":"LBTESTCD"},"mandatoryVariable":true,"mandatoryValue":false},{"name":"LBORRES","dataElementConceptId":"C36292","isNonStandard":false,"role":"Qualifier","dataType":"text","length":200,"relationship":{"subject":"LBORRES","linkingPhrase":"is the result of the test in","predicateTerm":"IS_RESULT_OF","object":"LBTESTCD"},"mandatoryVariable":true,"mandatoryValue":false,"originType":"Collected","originSource":"Vendor","vlmTarget":true},{"name":"LBSTRESC","dataElementConceptId":"C36292","isNonStandard":false,"role":"Qualifier","dataType":"text","length":200,"relationship":{"subject":"LBSTRESC","linkingPhrase":"is the result of the test in","predicateTerm":"IS_RESULT_OF","object":"LBTESTCD"},"mandatoryVariable":true,"mandatoryValue":false,"originType":"Collected","originSource":"Vendor","vlmTarget":true},{"name":"LBLOINC","isNonStandard":false,"assignedTerm":{"value":"30424-6"},"role":"Qualifier","relationship":{"subject":"LBLOINC","linkingPhrase":"identifies an observation described by","predicateTerm":"IDENTIFIES_OBSERVATION","object":"LBTESTCD"},"mandatoryVariable":false,"mandatoryValue":false},{"name":"LBSPEC","dataElementConceptId":"C70713","isNonStandard":false,"codelist":{"conceptId":"C78734","submissionValue":"SPECTYPE","href":"https://ncithesaurus.nci.nih.gov/ncitbrowser/ConceptReport.jsp?dictionary=NCI_Thesaurus&ns=ncit&code=C78734"},"assignedTerm":{"conceptId":"C12434","value":"BLOOD"},"role":"Qualifier","relationship":{"subject":"LBSPEC","linkingPhrase":"is the specimen tested in","predicateTerm":"IS_SPECIMEN_TESTED_IN","object":"LBTESTCD"},"mandatoryVariable":true,"mandatoryValue":false,"comparator":"EQ"},{"name":"LBFAST","dataElementConceptId":"C83309","isNonStandard":false,"codelist":{"conceptId":"C66742","submissionValue":"NY","href":"https://ncithesaurus.nci.nih.gov/ncitbrowser/ConceptReport.jsp?dictionary=NCI_Thesaurus&ns=ncit&code=C66742"},"subsetCodelist":"NY_NY","valueList":["N","Y"],"role":"Qualifier","relationship":{"subject":"LBFAST","linkingPhrase":"is the subject's fasting status during the performance of the test in","predicateTerm":"IS_SUBJECT_STATE_FOR","object":"LBTESTCD"},"mandatoryVariable":false,"mandatoryValue":false}]}