{"_links":{"parentBiomedicalConcept":{"href":"/mdr/bc/packages/2023-10-03/biomedicalconcepts/C200145","title":"Solicited Medical History","type":"Biomedical Concept"},"parentPackage":{"href":"/mdr/specializations/sdtm/packages/2023-10-03/datasetspecializations","title":"SDTM Dataset Specialization Package Effective 2023-10-03","type":"SDTM Dataset Specialization Package"},"self":{"href":"/mdr/specializations/sdtm/packages/2023-10-03/datasetspecializations/MHALZHEIMERS","title":"Medical History Prespecified Alzheimer's Disease","type":"SDTM Dataset Specialization"}},"datasetSpecializationId":"MHALZHEIMERS","domain":"MH","shortName":"Medical History Prespecified Alzheimer's Disease","source":"MH.MHTERM","sdtmigStartVersion":"3-2","sdtmigEndVersion":"","variables":[{"name":"MHTERM","dataElementConceptId":"C83118","isNonStandard":false,"assignedTerm":{"value":"ALZHEIMER'S DISEASE"},"role":"Topic","dataType":"text","length":200,"relationship":{"subject":"MHTERM","linkingPhrase":"is original text for","predicateTerm":"IS_ORIGINAL_TEXT_FOR","object":"MHDECOD"},"mandatoryVariable":true,"mandatoryValue":true,"originType":"Assigned","originSource":"Sponsor"},{"name":"MHDECOD","dataElementConceptId":"C83346","isNonStandard":false,"assignedTerm":{"value":"ALZHEIMER'S DISEASE"},"role":"Qualifier","dataType":"text","length":200,"relationship":{"subject":"MHDECOD","linkingPhrase":"is a dictionary-derived term for the value in","predicateTerm":"IS_DERIVED_FROM","object":"MHTERM"},"mandatoryVariable":true,"mandatoryValue":false,"originType":"Assigned","originSource":"Sponsor"},{"name":"MHEVDTYP","isNonStandard":false,"codelist":{"conceptId":"C124301","submissionValue":"MHEDTTYP","href":"https://ncithesaurus.nci.nih.gov/ncitbrowser/ConceptReport.jsp?dictionary=NCI_Thesaurus&ns=ncit&code=C124301"},"assignedTerm":{"conceptId":"C124353","value":"SYMPTOM ONSET"},"role":"Qualifier","dataType":"text","length":200,"relationship":{"subject":"MHEVDTYP","linkingPhrase":"is the aspect of the event used to define the date in","predicateTerm":"SPECIFIES","object":"MHSTDTC"},"mandatoryVariable":false,"mandatoryValue":false,"originType":"Assigned","originSource":"Sponsor"},{"name":"MHPRESP","dataElementConceptId":"C87897","isNonStandard":false,"codelist":{"conceptId":"C66742","submissionValue":"NY","href":"https://ncithesaurus.nci.nih.gov/ncitbrowser/ConceptReport.jsp?dictionary=NCI_Thesaurus&ns=ncit&code=C66742"},"subsetCodelist":"NY_Y","valueList":["Y"],"role":"Qualifier","dataType":"text","length":1,"relationship":{"subject":"MHPRESP","linkingPhrase":"indicates pre-specification of the value in","predicateTerm":"IS_INDICATOR_FOR","object":"MHTERM"},"mandatoryVariable":true,"mandatoryValue":true,"originType":"Assigned","originSource":"Sponsor"},{"name":"MHOCCUR","dataElementConceptId":"C83067","isNonStandard":false,"codelist":{"conceptId":"C66742","submissionValue":"NY","href":"https://ncithesaurus.nci.nih.gov/ncitbrowser/ConceptReport.jsp?dictionary=NCI_Thesaurus&ns=ncit&code=C66742"},"subsetCodelist":"NY_NY","valueList":["N","Y"],"role":"Qualifier","dataType":"text","length":1,"relationship":{"subject":"MHOCCUR","linkingPhrase":"indicates occurrence of the value in","predicateTerm":"IS_INDICATOR_FOR","object":"MHTERM"},"mandatoryVariable":true,"mandatoryValue":false,"originType":"Collected","originSource":"Investigator"},{"name":"MHSTDTC","dataElementConceptId":"C83338","isNonStandard":false,"role":"Timing","dataType":"datetime","relationship":{"subject":"MHSTDTC","linkingPhrase":"is the start date for","predicateTerm":"IS_TIMING_FOR","object":"MHTERM"},"mandatoryVariable":false,"mandatoryValue":false,"originType":"Collected","originSource":"Investigator"}]}