{"_links":{"parentBiomedicalConcept":{"href":"/mdr/bc/packages/2023-03-31/biomedicalconcepts/C50996","title":"Protocol Deviation","type":"Biomedical Concept"},"parentPackage":{"href":"/mdr/specializations/sdtm/packages/2023-07-06/datasetspecializations","title":"SDTM Dataset Specialization Package Effective 2023-07-06","type":"SDTM Dataset Specialization Package"},"self":{"href":"/mdr/specializations/sdtm/packages/2023-07-06/datasetspecializations/PROTDEV","title":"Protocol Deviation","type":"SDTM Dataset Specialization"}},"datasetSpecializationId":"PROTDEV","domain":"DS","shortName":"Protocol Deviation","source":"DS.DECODE","sdtmigStartVersion":"3-2","sdtmigEndVersion":"","variables":[{"name":"DSCAT","dataElementConceptId":"C83245","isNonStandard":false,"codelist":{"conceptId":"C74558","submissionValue":"DSCAT","href":"https://ncithesaurus.nci.nih.gov/ncitbrowser/ConceptReport.jsp?dictionary=NCI_Thesaurus&ns=ncit&code=C74558"},"assignedTerm":{"conceptId":"C74590","value":"DISPOSITION EVENT"},"role":"Qualifier","relationship":{"subject":"DSCAT","linkingPhrase":"groups values in","predicateTerm":"GROUPS","object":"DSTERM"},"mandatoryVariable":true,"mandatoryValue":false},{"name":"DSSCAT","dataElementConceptId":"C83248","isNonStandard":false,"codelist":{"conceptId":"C170443","submissionValue":"DSSCAT","href":"https://ncithesaurus.nci.nih.gov/ncitbrowser/ConceptReport.jsp?dictionary=NCI_Thesaurus&ns=ncit&code=C170443"},"valueList":["STUDY PARTICIPATION","STUDY TREATMENT"],"role":"Qualifer","relationship":{"subject":"DSSCAT","linkingPhrase":"groups values in","predicateTerm":"GROUPS","object":"DSTERM"},"mandatoryVariable":false,"mandatoryValue":false},{"name":"DSDECOD","dataElementConceptId":"C83122","isNonStandard":false,"codelist":{"conceptId":"C66727","submissionValue":"NCOMPLT","href":"https://ncithesaurus.nci.nih.gov/ncitbrowser/ConceptReport.jsp?dictionary=NCI_Thesaurus&ns=ncit&code=C66727"},"assignedTerm":{"conceptId":"C50996","value":"PROTOCOL DEVIATION"},"role":"Qualifier","dataType":"text","length":200,"relationship":{"subject":"DSDECOD","linkingPhrase":"is a dictionary-derived term for the value in","predicateTerm":"IS_DERIVED_FROM","object":"DSTERM"},"mandatoryVariable":true,"mandatoryValue":true,"originType":"Collected","originSource":"Investigator"},{"name":"DSTERM","dataElementConceptId":"C82571","isNonStandard":false,"role":"Topic","dataType":"text","length":200,"relationship":{"subject":"DSTERM","linkingPhrase":"is original text for","predicateTerm":"IS_ORIGINAL_TEXT_FOR","object":"DSDECOD"},"mandatoryVariable":true,"mandatoryValue":true,"originType":"Collected","originSource":"Investigator"}]}