{"_links":{"parentBiomedicalConcept":{"href":"/mdr/bc/packages/2023-07-06/biomedicalconcepts/C94534","title":"Response in Target Lesion","type":"Biomedical Concept"},"parentPackage":{"href":"/mdr/specializations/sdtm/packages/2023-07-06/datasetspecializations","title":"SDTM Dataset Specialization Package Effective 2023-07-06","type":"SDTM Dataset Specialization Package"},"self":{"href":"/mdr/specializations/sdtm/packages/2023-07-06/datasetspecializations/TRGRESP","title":"Target Response","type":"SDTM Dataset Specialization"}},"datasetSpecializationId":"TRGRESP","domain":"RS","shortName":"Target Response","source":"RS.RSTESTCD","sdtmigStartVersion":"3-2","sdtmigEndVersion":"","variables":[{"name":"RSTESTCD","isNonStandard":false,"codelist":{"conceptId":"C96782","submissionValue":"ONCRTSCD","href":"https://ncithesaurus.nci.nih.gov/ncitbrowser/ConceptReport.jsp?dictionary=NCI_Thesaurus&ns=ncit&code=C96782"},"assignedTerm":{"conceptId":"C94534","value":"TRGRESP"},"role":"Topic","relationship":{"subject":"RSTESTCD","linkingPhrase":"is the code for the value in","predicateTerm":"IS_DECODED_BY","object":"RSTEST"},"mandatoryVariable":true,"mandatoryValue":false,"originType":"Assigned","originSource":"Sponsor","comparator":"EQ"},{"name":"RSTEST","isNonStandard":false,"codelist":{"conceptId":"C96781","submissionValue":"ONCRTS","href":"https://ncithesaurus.nci.nih.gov/ncitbrowser/ConceptReport.jsp?dictionary=NCI_Thesaurus&ns=ncit&code=C96781"},"assignedTerm":{"conceptId":"C94534","value":"Target Response"},"role":"Qualifier","relationship":{"subject":"RSTEST","linkingPhrase":"decodes the value in","predicateTerm":"DECODES","object":"RSTESTCD"},"mandatoryVariable":true,"mandatoryValue":false,"originType":"Assigned","originSource":"Sponsor"},{"name":"RSCAT","dataElementConceptId":"C117388","isNonStandard":false,"codelist":{"conceptId":"C124298","submissionValue":"ONCRSCAT","href":"https://ncithesaurus.nci.nih.gov/ncitbrowser/ConceptReport.jsp?dictionary=NCI_Thesaurus&ns=ncit&code=C124298"},"assignedTerm":{"conceptId":"C124415","value":"RECIST 1.1"},"role":"Qualifier","relationship":{"subject":"RSCAT","linkingPhrase":"groups values in","predicateTerm":"GROUPS","object":"RSTESTCD"},"mandatoryVariable":true,"mandatoryValue":false,"originType":"Assigned","originSource":"Sponsor","comparator":"EQ"},{"name":"RSORRES","dataElementConceptId":"C117221","isNonStandard":false,"codelist":{"conceptId":"C96785","submissionValue":"ONCRSR","href":"https://ncithesaurus.nci.nih.gov/ncitbrowser/ConceptReport.jsp?dictionary=NCI_Thesaurus&ns=ncit&code=C96785"},"valueList":["CR","NE","PD","PR","SD"],"role":"Qualifier","dataType":"text","relationship":{"subject":"RSORRES","linkingPhrase":"is the result of the test in","predicateTerm":"IS_RESULT_OF","object":"RSTESTCD"},"mandatoryVariable":true,"mandatoryValue":false,"originType":"Collected","originSource":"Investigator","vlmTarget":true},{"name":"RSSTRESC","dataElementConceptId":"C117222","isNonStandard":false,"codelist":{"conceptId":"C96785","submissionValue":"ONCRSR","href":"https://ncithesaurus.nci.nih.gov/ncitbrowser/ConceptReport.jsp?dictionary=NCI_Thesaurus&ns=ncit&code=C96785"},"valueList":["CR","NE","PD","PR","SD"],"role":"Qualifier","dataType":"text","relationship":{"subject":"RSSTRESC","linkingPhrase":"is the result of the test in","predicateTerm":"IS_RESULT_OF","object":"RSTESTCD"},"mandatoryVariable":true,"mandatoryValue":false,"originType":"Derived","originSource":"Sponsor","vlmTarget":true},{"name":"RSEVAL","dataElementConceptId":"C51824","isNonStandard":false,"codelist":{"conceptId":"C78735","submissionValue":"EVAL","href":"https://ncithesaurus.nci.nih.gov/ncitbrowser/ConceptReport.jsp?dictionary=NCI_Thesaurus&ns=ncit&code=C78735"},"assignedTerm":{"conceptId":"C25936","value":"INVESTIGATOR"},"role":"Qualifier","relationship":{"subject":"RSEVAL","linkingPhrase":"is the role of the assessor who performed the test in","predicateTerm":"PERFORMED","object":"RSTESTCD"},"mandatoryVariable":false,"mandatoryValue":false,"originType":"Assigned","originSource":"Sponsor","comparator":"EQ"},{"name":"EPOCH","dataElementConceptId":"C71738","isNonStandard":false,"codelist":{"conceptId":"C99079","submissionValue":"EPOCH","href":"https://ncithesaurus.nci.nih.gov/ncitbrowser/ConceptReport.jsp?dictionary=NCI_Thesaurus&ns=ncit&code=C99079"},"assignedTerm":{"conceptId":"C101526","value":"TREATMENT"},"role":"Timing","relationship":{"subject":"EPOCH","linkingPhrase":"is the epoch of the performance of the test in","predicateTerm":"IS_EPOCH_OF","object":"RSTESTCD"},"mandatoryVariable":true,"mandatoryValue":false,"originType":"Assigned","originSource":"Sponsor","comparator":"EQ"}]}