<?xml version="1.0" encoding="UTF-8"?>
<?xml-stylesheet type="text/xsl" href="define2-1.xsl"?>
<!-- Produced with SAS 9.4 - SAS Open Clinical Standards Toolkit-->
<ODM xmlns:xlink="http://www.w3.org/1999/xlink" xmlns:def="http://www.cdisc.org/ns/def/v2.1" xmlns="http://www.cdisc.org/ns/odm/v1.3" FileOID="www.cdisc.org/StudyCDISC01_1/1/Define-XML_2.1.0" CreationDateTime="2023-10-12T14:59:36-04:00" FileType="Snapshot" ODMVersion="1.3.2" SourceSystem="SAS Clinical Standards Toolkit (openCST)" SourceSystemVersion="1.7" def:Context="Submission">
  <Study OID="STDY.www.cdisc.org.CDISC01_1">
    <GlobalVariables>
      <StudyName>CDISC01</StudyName>
      <StudyDescription>CDISC Test Study</StudyDescription>
      <ProtocolName>CDISC01</ProtocolName>
    </GlobalVariables>
    <MetaDataVersion OID="MDV.CDISC01.SDTMIG.3.3.SDTM.1.7" Name="Study CDISC01_1, Data Definitions V-1" Description="Data Definitions for CDISC01-01 SDTM datasets" def:DefineVersion="2.1.6" def:CommentOID="COM.MDV.CDISC01.SDTMIG.3.3.SDTM.1.7">
      <def:Standards>
        <def:Standard OID="STD.1" Name="SDTMIG" Type="IG" Version="3.3" Status="Final"/>
        <def:Standard OID="STD.2" Name="CDISC/NCI" Type="CT" PublishingSet="SDTM" Version="2023-09-29" Status="Final"/>
        <def:Standard OID="STD.3" Name="CDISC/NCI" Type="CT" PublishingSet="DEFINE-XML" Version="2023-06-30" Status="Final"/>
      </def:Standards>
      <def:ValueListDef OID="VL.RS.RSORRES">
        <ItemRef ItemOID="IT.RS.RSORRES.WC.RS.RSORRES.00001" OrderNumber="1" Mandatory="No" Role="Qualifier">
          <def:WhereClauseRef WhereClauseOID="WC.RS.RSORRES.00001"/>
        </ItemRef>
        <ItemRef ItemOID="IT.RS.RSORRES.WC.RS.RSORRES.00002" OrderNumber="2" Mandatory="No" Role="Qualifier">
          <def:WhereClauseRef WhereClauseOID="WC.RS.RSORRES.00002"/>
        </ItemRef>
        <ItemRef ItemOID="IT.RS.RSORRES.WC.RS.RSORRES.00003" OrderNumber="3" Mandatory="No" Role="Qualifier">
          <def:WhereClauseRef WhereClauseOID="WC.RS.RSORRES.00003"/>
        </ItemRef>
        <ItemRef ItemOID="IT.RS.RSORRES.WC.RS.RSORRES.00004" OrderNumber="4" Mandatory="No" Role="Qualifier">
          <def:WhereClauseRef WhereClauseOID="WC.RS.RSORRES.00004"/>
        </ItemRef>
      </def:ValueListDef>
      <def:ValueListDef OID="VL.RS.RSSTRESC">
        <ItemRef ItemOID="IT.RS.RSSTRESC.WC.RS.RSSTRESC.00005" OrderNumber="5" Mandatory="No" Role="Qualifier">
          <def:WhereClauseRef WhereClauseOID="WC.RS.RSSTRESC.00005"/>
        </ItemRef>
        <ItemRef ItemOID="IT.RS.RSSTRESC.WC.RS.RSSTRESC.00006" OrderNumber="6" Mandatory="No" Role="Qualifier">
          <def:WhereClauseRef WhereClauseOID="WC.RS.RSSTRESC.00006"/>
        </ItemRef>
        <ItemRef ItemOID="IT.RS.RSSTRESC.WC.RS.RSSTRESC.00007" OrderNumber="7" Mandatory="No" Role="Qualifier">
          <def:WhereClauseRef WhereClauseOID="WC.RS.RSSTRESC.00007"/>
        </ItemRef>
        <ItemRef ItemOID="IT.RS.RSSTRESC.WC.RS.RSSTRESC.00008" OrderNumber="8" Mandatory="No" Role="Qualifier">
          <def:WhereClauseRef WhereClauseOID="WC.RS.RSSTRESC.00008"/>
        </ItemRef>
      </def:ValueListDef>
      <def:ValueListDef OID="VL.TR.TRORRES">
        <ItemRef ItemOID="IT.TR.TRORRES.WC.TR.TRORRES.00009" OrderNumber="9" Mandatory="Yes" Role="Qualifier">
          <def:WhereClauseRef WhereClauseOID="WC.TR.TRORRES.00009"/>
        </ItemRef>
        <ItemRef ItemOID="IT.TR.TRORRES.WC.TR.TRORRES.00010" OrderNumber="10" Mandatory="Yes" Role="Qualifier">
          <def:WhereClauseRef WhereClauseOID="WC.TR.TRORRES.00010"/>
        </ItemRef>
        <ItemRef ItemOID="IT.TR.TRORRES.WC.TR.TRORRES.00011" OrderNumber="11" Mandatory="Yes" Role="Qualifier">
          <def:WhereClauseRef WhereClauseOID="WC.TR.TRORRES.00011"/>
        </ItemRef>
        <ItemRef ItemOID="IT.TR.TRORRES.WC.TR.TRORRES.00012" OrderNumber="12" Mandatory="Yes" Role="Qualifier">
          <def:WhereClauseRef WhereClauseOID="WC.TR.TRORRES.00012"/>
        </ItemRef>
      </def:ValueListDef>
      <def:ValueListDef OID="VL.TR.TRORRESU">
        <ItemRef ItemOID="IT.TR.TRORRESU.WC.TR.TRORRESU.00013" OrderNumber="13" Mandatory="No" Role="Qualifier">
          <def:WhereClauseRef WhereClauseOID="WC.TR.TRORRESU.00013"/>
        </ItemRef>
        <ItemRef ItemOID="IT.TR.TRORRESU.WC.TR.TRORRESU.00014" OrderNumber="14" Mandatory="No" Role="Qualifier">
          <def:WhereClauseRef WhereClauseOID="WC.TR.TRORRESU.00014"/>
        </ItemRef>
      </def:ValueListDef>
      <def:ValueListDef OID="VL.TR.TRSTRESC">
        <ItemRef ItemOID="IT.TR.TRSTRESC.WC.TR.TRSTRESC.00015" OrderNumber="15" Mandatory="No" Role="Qualifier">
          <def:WhereClauseRef WhereClauseOID="WC.TR.TRSTRESC.00015"/>
        </ItemRef>
        <ItemRef ItemOID="IT.TR.TRSTRESC.WC.TR.TRSTRESC.00016" OrderNumber="16" Mandatory="No" Role="Qualifier">
          <def:WhereClauseRef WhereClauseOID="WC.TR.TRSTRESC.00016"/>
        </ItemRef>
        <ItemRef ItemOID="IT.TR.TRSTRESC.WC.TR.TRSTRESC.00017" OrderNumber="17" Mandatory="No" Role="Qualifier">
          <def:WhereClauseRef WhereClauseOID="WC.TR.TRSTRESC.00017"/>
        </ItemRef>
        <ItemRef ItemOID="IT.TR.TRSTRESC.WC.TR.TRSTRESC.00018" OrderNumber="18" Mandatory="No" Role="Qualifier">
          <def:WhereClauseRef WhereClauseOID="WC.TR.TRSTRESC.00018"/>
        </ItemRef>
      </def:ValueListDef>
      <def:ValueListDef OID="VL.TR.TRSTRESN">
        <ItemRef ItemOID="IT.TR.TRSTRESN.WC.TR.TRSTRESN.00019" OrderNumber="19" Mandatory="No" Role="Qualifier">
          <def:WhereClauseRef WhereClauseOID="WC.TR.TRSTRESN.00019"/>
        </ItemRef>
        <ItemRef ItemOID="IT.TR.TRSTRESN.WC.TR.TRSTRESN.00020" OrderNumber="20" Mandatory="No" Role="Qualifier">
          <def:WhereClauseRef WhereClauseOID="WC.TR.TRSTRESN.00020"/>
        </ItemRef>
      </def:ValueListDef>
      <def:ValueListDef OID="VL.TR.TRSTRESU">
        <ItemRef ItemOID="IT.TR.TRSTRESU.WC.TR.TRSTRESU.00021" OrderNumber="21" Mandatory="No" Role="Qualifier">
          <def:WhereClauseRef WhereClauseOID="WC.TR.TRSTRESU.00021"/>
        </ItemRef>
        <ItemRef ItemOID="IT.TR.TRSTRESU.WC.TR.TRSTRESU.00022" OrderNumber="22" Mandatory="No" Role="Qualifier">
          <def:WhereClauseRef WhereClauseOID="WC.TR.TRSTRESU.00022"/>
        </ItemRef>
      </def:ValueListDef>
      <def:ValueListDef OID="VL.TU.TUORRES">
        <ItemRef ItemOID="IT.TU.TUORRES.WC.TU.TUORRES.00023" OrderNumber="23" Mandatory="No" Role="Qualifier">
          <def:WhereClauseRef WhereClauseOID="WC.TU.TUORRES.00023"/>
        </ItemRef>
        <ItemRef ItemOID="IT.TU.TUORRES.WC.TU.TUORRES.00024" OrderNumber="24" Mandatory="No" Role="Qualifier">
          <def:WhereClauseRef WhereClauseOID="WC.TU.TUORRES.00024"/>
        </ItemRef>
        <ItemRef ItemOID="IT.TU.TUORRES.WC.TU.TUORRES.00025" OrderNumber="25" Mandatory="No" Role="Qualifier">
          <def:WhereClauseRef WhereClauseOID="WC.TU.TUORRES.00025"/>
        </ItemRef>
        <ItemRef ItemOID="IT.TU.TUORRES.WC.TU.TUORRES.00027" OrderNumber="26" Mandatory="No" Role="Qualifier">
          <def:WhereClauseRef WhereClauseOID="WC.TU.TUORRES.00027"/>
        </ItemRef>
        <ItemRef ItemOID="IT.TU.TUORRES.WC.TU.TUORRES.00026" OrderNumber="27" Mandatory="No" Role="Qualifier">
          <def:WhereClauseRef WhereClauseOID="WC.TU.TUORRES.00026"/>
        </ItemRef>
      </def:ValueListDef>
      <def:ValueListDef OID="VL.TU.TUSTRESC">
        <ItemRef ItemOID="IT.TU.TUSTRESC.WC.TU.TUSTRESC.00028" OrderNumber="28" Mandatory="No" Role="Qualifier">
          <def:WhereClauseRef WhereClauseOID="WC.TU.TUSTRESC.00028"/>
        </ItemRef>
        <ItemRef ItemOID="IT.TU.TUSTRESC.WC.TU.TUSTRESC.00029" OrderNumber="29" Mandatory="No" Role="Qualifier">
          <def:WhereClauseRef WhereClauseOID="WC.TU.TUSTRESC.00029"/>
        </ItemRef>
        <ItemRef ItemOID="IT.TU.TUSTRESC.WC.TU.TUSTRESC.00030" OrderNumber="30" Mandatory="No" Role="Qualifier">
          <def:WhereClauseRef WhereClauseOID="WC.TU.TUSTRESC.00030"/>
        </ItemRef>
        <ItemRef ItemOID="IT.TU.TUSTRESC.WC.TU.TUSTRESC.00032" OrderNumber="31" Mandatory="No" Role="Qualifier">
          <def:WhereClauseRef WhereClauseOID="WC.TU.TUSTRESC.00032"/>
        </ItemRef>
        <ItemRef ItemOID="IT.TU.TUSTRESC.WC.TU.TUSTRESC.00031" OrderNumber="32" Mandatory="No" Role="Qualifier">
          <def:WhereClauseRef WhereClauseOID="WC.TU.TUSTRESC.00031"/>
        </ItemRef>
      </def:ValueListDef>
      <def:WhereClauseDef OID="WC.RS.RSORRES.00001">
        <RangeCheck Comparator="EQ" SoftHard="Soft" def:ItemOID="IT.RS.EPOCH">
          <CheckValue>TREATMENT</CheckValue>
        </RangeCheck>
        <RangeCheck Comparator="EQ" SoftHard="Soft" def:ItemOID="IT.RS.RSCAT">
          <CheckValue>RECIST 1.1</CheckValue>
        </RangeCheck>
        <RangeCheck Comparator="EQ" SoftHard="Soft" def:ItemOID="IT.RS.RSEVAL">
          <CheckValue>INVESTIGATOR</CheckValue>
        </RangeCheck>
        <RangeCheck Comparator="EQ" SoftHard="Soft" def:ItemOID="IT.RS.RSTESTCD">
          <CheckValue>NEWLPROG</CheckValue>
        </RangeCheck>
      </def:WhereClauseDef>
      <def:WhereClauseDef OID="WC.RS.RSORRES.00002">
        <RangeCheck Comparator="EQ" SoftHard="Soft" def:ItemOID="IT.RS.EPOCH">
          <CheckValue>TREATMENT</CheckValue>
        </RangeCheck>
        <RangeCheck Comparator="EQ" SoftHard="Soft" def:ItemOID="IT.RS.RSCAT">
          <CheckValue>RECIST 1.1</CheckValue>
        </RangeCheck>
        <RangeCheck Comparator="EQ" SoftHard="Soft" def:ItemOID="IT.RS.RSEVAL">
          <CheckValue>INVESTIGATOR</CheckValue>
        </RangeCheck>
        <RangeCheck Comparator="EQ" SoftHard="Soft" def:ItemOID="IT.RS.RSTESTCD">
          <CheckValue>NTRGRESP</CheckValue>
        </RangeCheck>
      </def:WhereClauseDef>
      <def:WhereClauseDef OID="WC.RS.RSORRES.00003">
        <RangeCheck Comparator="EQ" SoftHard="Soft" def:ItemOID="IT.RS.EPOCH">
          <CheckValue>TREATMENT</CheckValue>
        </RangeCheck>
        <RangeCheck Comparator="EQ" SoftHard="Soft" def:ItemOID="IT.RS.RSCAT">
          <CheckValue>RECIST 1.1</CheckValue>
        </RangeCheck>
        <RangeCheck Comparator="EQ" SoftHard="Soft" def:ItemOID="IT.RS.RSEVAL">
          <CheckValue>INVESTIGATOR</CheckValue>
        </RangeCheck>
        <RangeCheck Comparator="EQ" SoftHard="Soft" def:ItemOID="IT.RS.RSTESTCD">
          <CheckValue>OVRLRESP</CheckValue>
        </RangeCheck>
      </def:WhereClauseDef>
      <def:WhereClauseDef OID="WC.RS.RSORRES.00004">
        <RangeCheck Comparator="EQ" SoftHard="Soft" def:ItemOID="IT.RS.EPOCH">
          <CheckValue>TREATMENT</CheckValue>
        </RangeCheck>
        <RangeCheck Comparator="EQ" SoftHard="Soft" def:ItemOID="IT.RS.RSCAT">
          <CheckValue>RECIST 1.1</CheckValue>
        </RangeCheck>
        <RangeCheck Comparator="EQ" SoftHard="Soft" def:ItemOID="IT.RS.RSEVAL">
          <CheckValue>INVESTIGATOR</CheckValue>
        </RangeCheck>
        <RangeCheck Comparator="EQ" SoftHard="Soft" def:ItemOID="IT.RS.RSTESTCD">
          <CheckValue>TRGRESP</CheckValue>
        </RangeCheck>
      </def:WhereClauseDef>
      <def:WhereClauseDef OID="WC.RS.RSSTRESC.00005">
        <RangeCheck Comparator="EQ" SoftHard="Soft" def:ItemOID="IT.RS.EPOCH">
          <CheckValue>TREATMENT</CheckValue>
        </RangeCheck>
        <RangeCheck Comparator="EQ" SoftHard="Soft" def:ItemOID="IT.RS.RSCAT">
          <CheckValue>RECIST 1.1</CheckValue>
        </RangeCheck>
        <RangeCheck Comparator="EQ" SoftHard="Soft" def:ItemOID="IT.RS.RSEVAL">
          <CheckValue>INVESTIGATOR</CheckValue>
        </RangeCheck>
        <RangeCheck Comparator="EQ" SoftHard="Soft" def:ItemOID="IT.RS.RSTESTCD">
          <CheckValue>NEWLPROG</CheckValue>
        </RangeCheck>
      </def:WhereClauseDef>
      <def:WhereClauseDef OID="WC.RS.RSSTRESC.00006">
        <RangeCheck Comparator="EQ" SoftHard="Soft" def:ItemOID="IT.RS.EPOCH">
          <CheckValue>TREATMENT</CheckValue>
        </RangeCheck>
        <RangeCheck Comparator="EQ" SoftHard="Soft" def:ItemOID="IT.RS.RSCAT">
          <CheckValue>RECIST 1.1</CheckValue>
        </RangeCheck>
        <RangeCheck Comparator="EQ" SoftHard="Soft" def:ItemOID="IT.RS.RSEVAL">
          <CheckValue>INVESTIGATOR</CheckValue>
        </RangeCheck>
        <RangeCheck Comparator="EQ" SoftHard="Soft" def:ItemOID="IT.RS.RSTESTCD">
          <CheckValue>NTRGRESP</CheckValue>
        </RangeCheck>
      </def:WhereClauseDef>
      <def:WhereClauseDef OID="WC.RS.RSSTRESC.00007">
        <RangeCheck Comparator="EQ" SoftHard="Soft" def:ItemOID="IT.RS.EPOCH">
          <CheckValue>TREATMENT</CheckValue>
        </RangeCheck>
        <RangeCheck Comparator="EQ" SoftHard="Soft" def:ItemOID="IT.RS.RSCAT">
          <CheckValue>RECIST 1.1</CheckValue>
        </RangeCheck>
        <RangeCheck Comparator="EQ" SoftHard="Soft" def:ItemOID="IT.RS.RSEVAL">
          <CheckValue>INVESTIGATOR</CheckValue>
        </RangeCheck>
        <RangeCheck Comparator="EQ" SoftHard="Soft" def:ItemOID="IT.RS.RSTESTCD">
          <CheckValue>OVRLRESP</CheckValue>
        </RangeCheck>
      </def:WhereClauseDef>
      <def:WhereClauseDef OID="WC.RS.RSSTRESC.00008">
        <RangeCheck Comparator="EQ" SoftHard="Soft" def:ItemOID="IT.RS.EPOCH">
          <CheckValue>TREATMENT</CheckValue>
        </RangeCheck>
        <RangeCheck Comparator="EQ" SoftHard="Soft" def:ItemOID="IT.RS.RSCAT">
          <CheckValue>RECIST 1.1</CheckValue>
        </RangeCheck>
        <RangeCheck Comparator="EQ" SoftHard="Soft" def:ItemOID="IT.RS.RSEVAL">
          <CheckValue>INVESTIGATOR</CheckValue>
        </RangeCheck>
        <RangeCheck Comparator="EQ" SoftHard="Soft" def:ItemOID="IT.RS.RSTESTCD">
          <CheckValue>TRGRESP</CheckValue>
        </RangeCheck>
      </def:WhereClauseDef>
      <def:WhereClauseDef OID="WC.TR.TRORRES.00009">
        <RangeCheck Comparator="IN" SoftHard="Soft" def:ItemOID="IT.TR.EPOCH">
          <CheckValue>SCREENING</CheckValue>
          <CheckValue>TREATMENT</CheckValue>
        </RangeCheck>
        <RangeCheck Comparator="IN" SoftHard="Soft" def:ItemOID="IT.TR.TREVAL">
          <CheckValue>ADJUDICATOR</CheckValue>
          <CheckValue>INDEPENDENT ASSESSOR</CheckValue>
          <CheckValue>INVESTIGATOR</CheckValue>
        </RangeCheck>
        <RangeCheck Comparator="IN" SoftHard="Soft" def:ItemOID="IT.TR.TRMETHOD">
          <CheckValue>CALIPER MEASUREMENT METHOD</CheckValue>
          <CheckValue>CT SCAN</CheckValue>
          <CheckValue>ENDOSCOPY</CheckValue>
          <CheckValue>LYMPHANGIOGRAPHY</CheckValue>
          <CheckValue>MAMMOGRAPHY</CheckValue>
          <CheckValue>MRI</CheckValue>
          <CheckValue>NUCLEAR RADIOLOGY</CheckValue>
          <CheckValue>PET SCAN</CheckValue>
          <CheckValue>PET/CT SCAN</CheckValue>
          <CheckValue>PET/MRI SCAN</CheckValue>
          <CheckValue>PHOTOGRAPHY</CheckValue>
          <CheckValue>SCINTIGRAPHY</CheckValue>
          <CheckValue>TOTAL BODY RADIOGRAPHY</CheckValue>
          <CheckValue>ULTRASOUND</CheckValue>
          <CheckValue>X-RAY</CheckValue>
        </RangeCheck>
        <RangeCheck Comparator="EQ" SoftHard="Soft" def:ItemOID="IT.TR.TRTESTCD">
          <CheckValue>LDIAM</CheckValue>
        </RangeCheck>
      </def:WhereClauseDef>
      <def:WhereClauseDef OID="WC.TR.TRORRES.00010">
        <RangeCheck Comparator="IN" SoftHard="Soft" def:ItemOID="IT.TR.EPOCH">
          <CheckValue>SCREENING</CheckValue>
          <CheckValue>TREATMENT</CheckValue>
        </RangeCheck>
        <RangeCheck Comparator="IN" SoftHard="Soft" def:ItemOID="IT.TR.TREVAL">
          <CheckValue>ADJUDICATOR</CheckValue>
          <CheckValue>INDEPENDENT ASSESSOR</CheckValue>
          <CheckValue>INVESTIGATOR</CheckValue>
        </RangeCheck>
        <RangeCheck Comparator="IN" SoftHard="Soft" def:ItemOID="IT.TR.TRMETHOD">
          <CheckValue>CALIPER MEASUREMENT METHOD</CheckValue>
          <CheckValue>CT SCAN</CheckValue>
          <CheckValue>ENDOSCOPY</CheckValue>
          <CheckValue>LYMPHANGIOGRAPHY</CheckValue>
          <CheckValue>MAMMOGRAPHY</CheckValue>
          <CheckValue>MRI</CheckValue>
          <CheckValue>NUCLEAR RADIOLOGY</CheckValue>
          <CheckValue>PET SCAN</CheckValue>
          <CheckValue>PET/CT SCAN</CheckValue>
          <CheckValue>PET/MRI SCAN</CheckValue>
          <CheckValue>PHOTOGRAPHY</CheckValue>
          <CheckValue>SCINTIGRAPHY</CheckValue>
          <CheckValue>TOTAL BODY RADIOGRAPHY</CheckValue>
          <CheckValue>ULTRASOUND</CheckValue>
          <CheckValue>X-RAY</CheckValue>
        </RangeCheck>
        <RangeCheck Comparator="EQ" SoftHard="Soft" def:ItemOID="IT.TR.TRTESTCD">
          <CheckValue>LNSTATE</CheckValue>
        </RangeCheck>
      </def:WhereClauseDef>
      <def:WhereClauseDef OID="WC.TR.TRORRES.00011">
        <RangeCheck Comparator="IN" SoftHard="Soft" def:ItemOID="IT.TR.EPOCH">
          <CheckValue>SCREENING</CheckValue>
          <CheckValue>TREATMENT</CheckValue>
        </RangeCheck>
        <RangeCheck Comparator="IN" SoftHard="Soft" def:ItemOID="IT.TR.TREVAL">
          <CheckValue>ADJUDICATOR</CheckValue>
          <CheckValue>INDEPENDENT ASSESSOR</CheckValue>
          <CheckValue>INVESTIGATOR</CheckValue>
        </RangeCheck>
        <RangeCheck Comparator="IN" SoftHard="Soft" def:ItemOID="IT.TR.TRMETHOD">
          <CheckValue>CALIPER MEASUREMENT METHOD</CheckValue>
          <CheckValue>CT SCAN</CheckValue>
          <CheckValue>ENDOSCOPY</CheckValue>
          <CheckValue>LYMPHANGIOGRAPHY</CheckValue>
          <CheckValue>MAMMOGRAPHY</CheckValue>
          <CheckValue>MRI</CheckValue>
          <CheckValue>NUCLEAR RADIOLOGY</CheckValue>
          <CheckValue>PET SCAN</CheckValue>
          <CheckValue>PET/CT SCAN</CheckValue>
          <CheckValue>PET/MRI SCAN</CheckValue>
          <CheckValue>PHOTOGRAPHY</CheckValue>
          <CheckValue>SCINTIGRAPHY</CheckValue>
          <CheckValue>TOTAL BODY RADIOGRAPHY</CheckValue>
          <CheckValue>ULTRASOUND</CheckValue>
          <CheckValue>X-RAY</CheckValue>
        </RangeCheck>
        <RangeCheck Comparator="EQ" SoftHard="Soft" def:ItemOID="IT.TR.TRTESTCD">
          <CheckValue>LPERP</CheckValue>
        </RangeCheck>
      </def:WhereClauseDef>
      <def:WhereClauseDef OID="WC.TR.TRORRES.00012">
        <RangeCheck Comparator="IN" SoftHard="Soft" def:ItemOID="IT.TR.EPOCH">
          <CheckValue>SCREENING</CheckValue>
          <CheckValue>TREATMENT</CheckValue>
        </RangeCheck>
        <RangeCheck Comparator="IN" SoftHard="Soft" def:ItemOID="IT.TR.TREVAL">
          <CheckValue>ADJUDICATOR</CheckValue>
          <CheckValue>INDEPENDENT ASSESSOR</CheckValue>
          <CheckValue>INVESTIGATOR</CheckValue>
        </RangeCheck>
        <RangeCheck Comparator="IN" SoftHard="Soft" def:ItemOID="IT.TR.TRMETHOD">
          <CheckValue>CALIPER MEASUREMENT METHOD</CheckValue>
          <CheckValue>CT SCAN</CheckValue>
          <CheckValue>ENDOSCOPY</CheckValue>
          <CheckValue>LYMPHANGIOGRAPHY</CheckValue>
          <CheckValue>MAMMOGRAPHY</CheckValue>
          <CheckValue>MRI</CheckValue>
          <CheckValue>NUCLEAR RADIOLOGY</CheckValue>
          <CheckValue>PET SCAN</CheckValue>
          <CheckValue>PET/CT SCAN</CheckValue>
          <CheckValue>PET/MRI SCAN</CheckValue>
          <CheckValue>PHOTOGRAPHY</CheckValue>
          <CheckValue>SCINTIGRAPHY</CheckValue>
          <CheckValue>TOTAL BODY RADIOGRAPHY</CheckValue>
          <CheckValue>ULTRASOUND</CheckValue>
          <CheckValue>X-RAY</CheckValue>
        </RangeCheck>
        <RangeCheck Comparator="EQ" SoftHard="Soft" def:ItemOID="IT.TR.TRTESTCD">
          <CheckValue>TUMSTATE</CheckValue>
        </RangeCheck>
      </def:WhereClauseDef>
      <def:WhereClauseDef OID="WC.TR.TRORRESU.00013">
        <RangeCheck Comparator="IN" SoftHard="Soft" def:ItemOID="IT.TR.EPOCH">
          <CheckValue>SCREENING</CheckValue>
          <CheckValue>TREATMENT</CheckValue>
        </RangeCheck>
        <RangeCheck Comparator="IN" SoftHard="Soft" def:ItemOID="IT.TR.TREVAL">
          <CheckValue>ADJUDICATOR</CheckValue>
          <CheckValue>INDEPENDENT ASSESSOR</CheckValue>
          <CheckValue>INVESTIGATOR</CheckValue>
        </RangeCheck>
        <RangeCheck Comparator="IN" SoftHard="Soft" def:ItemOID="IT.TR.TRMETHOD">
          <CheckValue>CALIPER MEASUREMENT METHOD</CheckValue>
          <CheckValue>CT SCAN</CheckValue>
          <CheckValue>ENDOSCOPY</CheckValue>
          <CheckValue>LYMPHANGIOGRAPHY</CheckValue>
          <CheckValue>MAMMOGRAPHY</CheckValue>
          <CheckValue>MRI</CheckValue>
          <CheckValue>NUCLEAR RADIOLOGY</CheckValue>
          <CheckValue>PET SCAN</CheckValue>
          <CheckValue>PET/CT SCAN</CheckValue>
          <CheckValue>PET/MRI SCAN</CheckValue>
          <CheckValue>PHOTOGRAPHY</CheckValue>
          <CheckValue>SCINTIGRAPHY</CheckValue>
          <CheckValue>TOTAL BODY RADIOGRAPHY</CheckValue>
          <CheckValue>ULTRASOUND</CheckValue>
          <CheckValue>X-RAY</CheckValue>
        </RangeCheck>
        <RangeCheck Comparator="EQ" SoftHard="Soft" def:ItemOID="IT.TR.TRTESTCD">
          <CheckValue>LDIAM</CheckValue>
        </RangeCheck>
      </def:WhereClauseDef>
      <def:WhereClauseDef OID="WC.TR.TRORRESU.00014">
        <RangeCheck Comparator="IN" SoftHard="Soft" def:ItemOID="IT.TR.EPOCH">
          <CheckValue>SCREENING</CheckValue>
          <CheckValue>TREATMENT</CheckValue>
        </RangeCheck>
        <RangeCheck Comparator="IN" SoftHard="Soft" def:ItemOID="IT.TR.TREVAL">
          <CheckValue>ADJUDICATOR</CheckValue>
          <CheckValue>INDEPENDENT ASSESSOR</CheckValue>
          <CheckValue>INVESTIGATOR</CheckValue>
        </RangeCheck>
        <RangeCheck Comparator="IN" SoftHard="Soft" def:ItemOID="IT.TR.TRMETHOD">
          <CheckValue>CALIPER MEASUREMENT METHOD</CheckValue>
          <CheckValue>CT SCAN</CheckValue>
          <CheckValue>ENDOSCOPY</CheckValue>
          <CheckValue>LYMPHANGIOGRAPHY</CheckValue>
          <CheckValue>MAMMOGRAPHY</CheckValue>
          <CheckValue>MRI</CheckValue>
          <CheckValue>NUCLEAR RADIOLOGY</CheckValue>
          <CheckValue>PET SCAN</CheckValue>
          <CheckValue>PET/CT SCAN</CheckValue>
          <CheckValue>PET/MRI SCAN</CheckValue>
          <CheckValue>PHOTOGRAPHY</CheckValue>
          <CheckValue>SCINTIGRAPHY</CheckValue>
          <CheckValue>TOTAL BODY RADIOGRAPHY</CheckValue>
          <CheckValue>ULTRASOUND</CheckValue>
          <CheckValue>X-RAY</CheckValue>
        </RangeCheck>
        <RangeCheck Comparator="EQ" SoftHard="Soft" def:ItemOID="IT.TR.TRTESTCD">
          <CheckValue>LPERP</CheckValue>
        </RangeCheck>
      </def:WhereClauseDef>
      <def:WhereClauseDef OID="WC.TR.TRSTRESC.00015">
        <RangeCheck Comparator="IN" SoftHard="Soft" def:ItemOID="IT.TR.EPOCH">
          <CheckValue>SCREENING</CheckValue>
          <CheckValue>TREATMENT</CheckValue>
        </RangeCheck>
        <RangeCheck Comparator="IN" SoftHard="Soft" def:ItemOID="IT.TR.TREVAL">
          <CheckValue>ADJUDICATOR</CheckValue>
          <CheckValue>INDEPENDENT ASSESSOR</CheckValue>
          <CheckValue>INVESTIGATOR</CheckValue>
        </RangeCheck>
        <RangeCheck Comparator="IN" SoftHard="Soft" def:ItemOID="IT.TR.TRMETHOD">
          <CheckValue>CALIPER MEASUREMENT METHOD</CheckValue>
          <CheckValue>CT SCAN</CheckValue>
          <CheckValue>ENDOSCOPY</CheckValue>
          <CheckValue>LYMPHANGIOGRAPHY</CheckValue>
          <CheckValue>MAMMOGRAPHY</CheckValue>
          <CheckValue>MRI</CheckValue>
          <CheckValue>NUCLEAR RADIOLOGY</CheckValue>
          <CheckValue>PET SCAN</CheckValue>
          <CheckValue>PET/CT SCAN</CheckValue>
          <CheckValue>PET/MRI SCAN</CheckValue>
          <CheckValue>PHOTOGRAPHY</CheckValue>
          <CheckValue>SCINTIGRAPHY</CheckValue>
          <CheckValue>TOTAL BODY RADIOGRAPHY</CheckValue>
          <CheckValue>ULTRASOUND</CheckValue>
          <CheckValue>X-RAY</CheckValue>
        </RangeCheck>
        <RangeCheck Comparator="EQ" SoftHard="Soft" def:ItemOID="IT.TR.TRTESTCD">
          <CheckValue>LDIAM</CheckValue>
        </RangeCheck>
      </def:WhereClauseDef>
      <def:WhereClauseDef OID="WC.TR.TRSTRESC.00016">
        <RangeCheck Comparator="IN" SoftHard="Soft" def:ItemOID="IT.TR.EPOCH">
          <CheckValue>SCREENING</CheckValue>
          <CheckValue>TREATMENT</CheckValue>
        </RangeCheck>
        <RangeCheck Comparator="IN" SoftHard="Soft" def:ItemOID="IT.TR.TREVAL">
          <CheckValue>ADJUDICATOR</CheckValue>
          <CheckValue>INDEPENDENT ASSESSOR</CheckValue>
          <CheckValue>INVESTIGATOR</CheckValue>
        </RangeCheck>
        <RangeCheck Comparator="IN" SoftHard="Soft" def:ItemOID="IT.TR.TRMETHOD">
          <CheckValue>CALIPER MEASUREMENT METHOD</CheckValue>
          <CheckValue>CT SCAN</CheckValue>
          <CheckValue>ENDOSCOPY</CheckValue>
          <CheckValue>LYMPHANGIOGRAPHY</CheckValue>
          <CheckValue>MAMMOGRAPHY</CheckValue>
          <CheckValue>MRI</CheckValue>
          <CheckValue>NUCLEAR RADIOLOGY</CheckValue>
          <CheckValue>PET SCAN</CheckValue>
          <CheckValue>PET/CT SCAN</CheckValue>
          <CheckValue>PET/MRI SCAN</CheckValue>
          <CheckValue>PHOTOGRAPHY</CheckValue>
          <CheckValue>SCINTIGRAPHY</CheckValue>
          <CheckValue>TOTAL BODY RADIOGRAPHY</CheckValue>
          <CheckValue>ULTRASOUND</CheckValue>
          <CheckValue>X-RAY</CheckValue>
        </RangeCheck>
        <RangeCheck Comparator="EQ" SoftHard="Soft" def:ItemOID="IT.TR.TRTESTCD">
          <CheckValue>LNSTATE</CheckValue>
        </RangeCheck>
      </def:WhereClauseDef>
      <def:WhereClauseDef OID="WC.TR.TRSTRESC.00017">
        <RangeCheck Comparator="IN" SoftHard="Soft" def:ItemOID="IT.TR.EPOCH">
          <CheckValue>SCREENING</CheckValue>
          <CheckValue>TREATMENT</CheckValue>
        </RangeCheck>
        <RangeCheck Comparator="IN" SoftHard="Soft" def:ItemOID="IT.TR.TREVAL">
          <CheckValue>ADJUDICATOR</CheckValue>
          <CheckValue>INDEPENDENT ASSESSOR</CheckValue>
          <CheckValue>INVESTIGATOR</CheckValue>
        </RangeCheck>
        <RangeCheck Comparator="IN" SoftHard="Soft" def:ItemOID="IT.TR.TRMETHOD">
          <CheckValue>CALIPER MEASUREMENT METHOD</CheckValue>
          <CheckValue>CT SCAN</CheckValue>
          <CheckValue>ENDOSCOPY</CheckValue>
          <CheckValue>LYMPHANGIOGRAPHY</CheckValue>
          <CheckValue>MAMMOGRAPHY</CheckValue>
          <CheckValue>MRI</CheckValue>
          <CheckValue>NUCLEAR RADIOLOGY</CheckValue>
          <CheckValue>PET SCAN</CheckValue>
          <CheckValue>PET/CT SCAN</CheckValue>
          <CheckValue>PET/MRI SCAN</CheckValue>
          <CheckValue>PHOTOGRAPHY</CheckValue>
          <CheckValue>SCINTIGRAPHY</CheckValue>
          <CheckValue>TOTAL BODY RADIOGRAPHY</CheckValue>
          <CheckValue>ULTRASOUND</CheckValue>
          <CheckValue>X-RAY</CheckValue>
        </RangeCheck>
        <RangeCheck Comparator="EQ" SoftHard="Soft" def:ItemOID="IT.TR.TRTESTCD">
          <CheckValue>LPERP</CheckValue>
        </RangeCheck>
      </def:WhereClauseDef>
      <def:WhereClauseDef OID="WC.TR.TRSTRESC.00018">
        <RangeCheck Comparator="IN" SoftHard="Soft" def:ItemOID="IT.TR.EPOCH">
          <CheckValue>SCREENING</CheckValue>
          <CheckValue>TREATMENT</CheckValue>
        </RangeCheck>
        <RangeCheck Comparator="IN" SoftHard="Soft" def:ItemOID="IT.TR.TREVAL">
          <CheckValue>ADJUDICATOR</CheckValue>
          <CheckValue>INDEPENDENT ASSESSOR</CheckValue>
          <CheckValue>INVESTIGATOR</CheckValue>
        </RangeCheck>
        <RangeCheck Comparator="IN" SoftHard="Soft" def:ItemOID="IT.TR.TRMETHOD">
          <CheckValue>CALIPER MEASUREMENT METHOD</CheckValue>
          <CheckValue>CT SCAN</CheckValue>
          <CheckValue>ENDOSCOPY</CheckValue>
          <CheckValue>LYMPHANGIOGRAPHY</CheckValue>
          <CheckValue>MAMMOGRAPHY</CheckValue>
          <CheckValue>MRI</CheckValue>
          <CheckValue>NUCLEAR RADIOLOGY</CheckValue>
          <CheckValue>PET SCAN</CheckValue>
          <CheckValue>PET/CT SCAN</CheckValue>
          <CheckValue>PET/MRI SCAN</CheckValue>
          <CheckValue>PHOTOGRAPHY</CheckValue>
          <CheckValue>SCINTIGRAPHY</CheckValue>
          <CheckValue>TOTAL BODY RADIOGRAPHY</CheckValue>
          <CheckValue>ULTRASOUND</CheckValue>
          <CheckValue>X-RAY</CheckValue>
        </RangeCheck>
        <RangeCheck Comparator="EQ" SoftHard="Soft" def:ItemOID="IT.TR.TRTESTCD">
          <CheckValue>TUMSTATE</CheckValue>
        </RangeCheck>
      </def:WhereClauseDef>
      <def:WhereClauseDef OID="WC.TR.TRSTRESN.00019">
        <RangeCheck Comparator="IN" SoftHard="Soft" def:ItemOID="IT.TR.EPOCH">
          <CheckValue>SCREENING</CheckValue>
          <CheckValue>TREATMENT</CheckValue>
        </RangeCheck>
        <RangeCheck Comparator="IN" SoftHard="Soft" def:ItemOID="IT.TR.TREVAL">
          <CheckValue>ADJUDICATOR</CheckValue>
          <CheckValue>INDEPENDENT ASSESSOR</CheckValue>
          <CheckValue>INVESTIGATOR</CheckValue>
        </RangeCheck>
        <RangeCheck Comparator="IN" SoftHard="Soft" def:ItemOID="IT.TR.TRMETHOD">
          <CheckValue>CALIPER MEASUREMENT METHOD</CheckValue>
          <CheckValue>CT SCAN</CheckValue>
          <CheckValue>ENDOSCOPY</CheckValue>
          <CheckValue>LYMPHANGIOGRAPHY</CheckValue>
          <CheckValue>MAMMOGRAPHY</CheckValue>
          <CheckValue>MRI</CheckValue>
          <CheckValue>NUCLEAR RADIOLOGY</CheckValue>
          <CheckValue>PET SCAN</CheckValue>
          <CheckValue>PET/CT SCAN</CheckValue>
          <CheckValue>PET/MRI SCAN</CheckValue>
          <CheckValue>PHOTOGRAPHY</CheckValue>
          <CheckValue>SCINTIGRAPHY</CheckValue>
          <CheckValue>TOTAL BODY RADIOGRAPHY</CheckValue>
          <CheckValue>ULTRASOUND</CheckValue>
          <CheckValue>X-RAY</CheckValue>
        </RangeCheck>
        <RangeCheck Comparator="EQ" SoftHard="Soft" def:ItemOID="IT.TR.TRTESTCD">
          <CheckValue>LDIAM</CheckValue>
        </RangeCheck>
      </def:WhereClauseDef>
      <def:WhereClauseDef OID="WC.TR.TRSTRESN.00020">
        <RangeCheck Comparator="IN" SoftHard="Soft" def:ItemOID="IT.TR.EPOCH">
          <CheckValue>SCREENING</CheckValue>
          <CheckValue>TREATMENT</CheckValue>
        </RangeCheck>
        <RangeCheck Comparator="IN" SoftHard="Soft" def:ItemOID="IT.TR.TREVAL">
          <CheckValue>ADJUDICATOR</CheckValue>
          <CheckValue>INDEPENDENT ASSESSOR</CheckValue>
          <CheckValue>INVESTIGATOR</CheckValue>
        </RangeCheck>
        <RangeCheck Comparator="IN" SoftHard="Soft" def:ItemOID="IT.TR.TRMETHOD">
          <CheckValue>CALIPER MEASUREMENT METHOD</CheckValue>
          <CheckValue>CT SCAN</CheckValue>
          <CheckValue>ENDOSCOPY</CheckValue>
          <CheckValue>LYMPHANGIOGRAPHY</CheckValue>
          <CheckValue>MAMMOGRAPHY</CheckValue>
          <CheckValue>MRI</CheckValue>
          <CheckValue>NUCLEAR RADIOLOGY</CheckValue>
          <CheckValue>PET SCAN</CheckValue>
          <CheckValue>PET/CT SCAN</CheckValue>
          <CheckValue>PET/MRI SCAN</CheckValue>
          <CheckValue>PHOTOGRAPHY</CheckValue>
          <CheckValue>SCINTIGRAPHY</CheckValue>
          <CheckValue>TOTAL BODY RADIOGRAPHY</CheckValue>
          <CheckValue>ULTRASOUND</CheckValue>
          <CheckValue>X-RAY</CheckValue>
        </RangeCheck>
        <RangeCheck Comparator="EQ" SoftHard="Soft" def:ItemOID="IT.TR.TRTESTCD">
          <CheckValue>LPERP</CheckValue>
        </RangeCheck>
      </def:WhereClauseDef>
      <def:WhereClauseDef OID="WC.TR.TRSTRESU.00021">
        <RangeCheck Comparator="IN" SoftHard="Soft" def:ItemOID="IT.TR.EPOCH">
          <CheckValue>SCREENING</CheckValue>
          <CheckValue>TREATMENT</CheckValue>
        </RangeCheck>
        <RangeCheck Comparator="IN" SoftHard="Soft" def:ItemOID="IT.TR.TREVAL">
          <CheckValue>ADJUDICATOR</CheckValue>
          <CheckValue>INDEPENDENT ASSESSOR</CheckValue>
          <CheckValue>INVESTIGATOR</CheckValue>
        </RangeCheck>
        <RangeCheck Comparator="IN" SoftHard="Soft" def:ItemOID="IT.TR.TRMETHOD">
          <CheckValue>CALIPER MEASUREMENT METHOD</CheckValue>
          <CheckValue>CT SCAN</CheckValue>
          <CheckValue>ENDOSCOPY</CheckValue>
          <CheckValue>LYMPHANGIOGRAPHY</CheckValue>
          <CheckValue>MAMMOGRAPHY</CheckValue>
          <CheckValue>MRI</CheckValue>
          <CheckValue>NUCLEAR RADIOLOGY</CheckValue>
          <CheckValue>PET SCAN</CheckValue>
          <CheckValue>PET/CT SCAN</CheckValue>
          <CheckValue>PET/MRI SCAN</CheckValue>
          <CheckValue>PHOTOGRAPHY</CheckValue>
          <CheckValue>SCINTIGRAPHY</CheckValue>
          <CheckValue>TOTAL BODY RADIOGRAPHY</CheckValue>
          <CheckValue>ULTRASOUND</CheckValue>
          <CheckValue>X-RAY</CheckValue>
        </RangeCheck>
        <RangeCheck Comparator="EQ" SoftHard="Soft" def:ItemOID="IT.TR.TRTESTCD">
          <CheckValue>LDIAM</CheckValue>
        </RangeCheck>
      </def:WhereClauseDef>
      <def:WhereClauseDef OID="WC.TR.TRSTRESU.00022">
        <RangeCheck Comparator="IN" SoftHard="Soft" def:ItemOID="IT.TR.EPOCH">
          <CheckValue>SCREENING</CheckValue>
          <CheckValue>TREATMENT</CheckValue>
        </RangeCheck>
        <RangeCheck Comparator="IN" SoftHard="Soft" def:ItemOID="IT.TR.TREVAL">
          <CheckValue>ADJUDICATOR</CheckValue>
          <CheckValue>INDEPENDENT ASSESSOR</CheckValue>
          <CheckValue>INVESTIGATOR</CheckValue>
        </RangeCheck>
        <RangeCheck Comparator="IN" SoftHard="Soft" def:ItemOID="IT.TR.TRMETHOD">
          <CheckValue>CALIPER MEASUREMENT METHOD</CheckValue>
          <CheckValue>CT SCAN</CheckValue>
          <CheckValue>ENDOSCOPY</CheckValue>
          <CheckValue>LYMPHANGIOGRAPHY</CheckValue>
          <CheckValue>MAMMOGRAPHY</CheckValue>
          <CheckValue>MRI</CheckValue>
          <CheckValue>NUCLEAR RADIOLOGY</CheckValue>
          <CheckValue>PET SCAN</CheckValue>
          <CheckValue>PET/CT SCAN</CheckValue>
          <CheckValue>PET/MRI SCAN</CheckValue>
          <CheckValue>PHOTOGRAPHY</CheckValue>
          <CheckValue>SCINTIGRAPHY</CheckValue>
          <CheckValue>TOTAL BODY RADIOGRAPHY</CheckValue>
          <CheckValue>ULTRASOUND</CheckValue>
          <CheckValue>X-RAY</CheckValue>
        </RangeCheck>
        <RangeCheck Comparator="EQ" SoftHard="Soft" def:ItemOID="IT.TR.TRTESTCD">
          <CheckValue>LPERP</CheckValue>
        </RangeCheck>
      </def:WhereClauseDef>
      <def:WhereClauseDef OID="WC.TU.TUORRES.00023">
        <RangeCheck Comparator="EQ" SoftHard="Soft" def:ItemOID="IT.TU.EPOCH">
          <CheckValue>SCREENING</CheckValue>
        </RangeCheck>
        <RangeCheck Comparator="EQ" SoftHard="Soft" def:ItemOID="IT.TU.TUEVAL">
          <CheckValue>INVESTIGATOR</CheckValue>
        </RangeCheck>
        <RangeCheck Comparator="EQ" SoftHard="Soft" def:ItemOID="IT.TU.TUTESTCD">
          <CheckValue>NTIND</CheckValue>
        </RangeCheck>
      </def:WhereClauseDef>
      <def:WhereClauseDef OID="WC.TU.TUORRES.00024">
        <RangeCheck Comparator="EQ" SoftHard="Soft" def:ItemOID="IT.TU.EPOCH">
          <CheckValue>SCREENING</CheckValue>
        </RangeCheck>
        <RangeCheck Comparator="EQ" SoftHard="Soft" def:ItemOID="IT.TU.TUEVAL">
          <CheckValue>INVESTIGATOR</CheckValue>
        </RangeCheck>
        <RangeCheck Comparator="EQ" SoftHard="Soft" def:ItemOID="IT.TU.TUTESTCD">
          <CheckValue>TIND</CheckValue>
        </RangeCheck>
      </def:WhereClauseDef>
      <def:WhereClauseDef OID="WC.TU.TUORRES.00025">
        <RangeCheck Comparator="EQ" SoftHard="Soft" def:ItemOID="IT.TU.EPOCH">
          <CheckValue>TREATMENT</CheckValue>
        </RangeCheck>
        <RangeCheck Comparator="IN" SoftHard="Soft" def:ItemOID="IT.TU.TUEVAL">
          <CheckValue>ADJUDICATOR</CheckValue>
          <CheckValue>INDEPENDENT ASSESSOR</CheckValue>
          <CheckValue>INVESTIGATOR</CheckValue>
        </RangeCheck>
        <RangeCheck Comparator="IN" SoftHard="Soft" def:ItemOID="IT.TU.TUMETHOD">
          <CheckValue>CALIPER MEASUREMENT METHOD</CheckValue>
          <CheckValue>CT SCAN</CheckValue>
          <CheckValue>ENDOSCOPY</CheckValue>
          <CheckValue>LYMPHANGIOGRAPHY</CheckValue>
          <CheckValue>MAMMOGRAPHY</CheckValue>
          <CheckValue>MRI</CheckValue>
          <CheckValue>NUCLEAR RADIOLOGY</CheckValue>
          <CheckValue>PET SCAN</CheckValue>
          <CheckValue>PET/CT SCAN</CheckValue>
          <CheckValue>PET/MRI SCAN</CheckValue>
          <CheckValue>PHOTOGRAPHY</CheckValue>
          <CheckValue>SCINTIGRAPHY</CheckValue>
          <CheckValue>TOTAL BODY RADIOGRAPHY</CheckValue>
          <CheckValue>ULTRASOUND</CheckValue>
          <CheckValue>X-RAY</CheckValue>
        </RangeCheck>
        <RangeCheck Comparator="EQ" SoftHard="Soft" def:ItemOID="IT.TU.TUTESTCD">
          <CheckValue>TUMERGE</CheckValue>
        </RangeCheck>
      </def:WhereClauseDef>
      <def:WhereClauseDef OID="WC.TU.TUORRES.00026">
        <RangeCheck Comparator="EQ" SoftHard="Soft" def:ItemOID="IT.TU.EPOCH">
          <CheckValue>TREATMENT</CheckValue>
        </RangeCheck>
        <RangeCheck Comparator="IN" SoftHard="Soft" def:ItemOID="IT.TU.TUEVAL">
          <CheckValue>ADJUDICATOR</CheckValue>
          <CheckValue>INDEPENDENT ASSESSOR</CheckValue>
          <CheckValue>INVESTIGATOR</CheckValue>
        </RangeCheck>
        <RangeCheck Comparator="IN" SoftHard="Soft" def:ItemOID="IT.TU.TUMETHOD">
          <CheckValue>CALIPER MEASUREMENT METHOD</CheckValue>
          <CheckValue>CT SCAN</CheckValue>
          <CheckValue>ENDOSCOPY</CheckValue>
          <CheckValue>LYMPHANGIOGRAPHY</CheckValue>
          <CheckValue>MAMMOGRAPHY</CheckValue>
          <CheckValue>MRI</CheckValue>
          <CheckValue>NUCLEAR RADIOLOGY</CheckValue>
          <CheckValue>PET SCAN</CheckValue>
          <CheckValue>PET/CT SCAN</CheckValue>
          <CheckValue>PET/MRI SCAN</CheckValue>
          <CheckValue>PHOTOGRAPHY</CheckValue>
          <CheckValue>SCINTIGRAPHY</CheckValue>
          <CheckValue>TOTAL BODY RADIOGRAPHY</CheckValue>
          <CheckValue>ULTRASOUND</CheckValue>
          <CheckValue>X-RAY</CheckValue>
        </RangeCheck>
        <RangeCheck Comparator="EQ" SoftHard="Soft" def:ItemOID="IT.TU.TUTESTCD">
          <CheckValue>TUSPLIT</CheckValue>
        </RangeCheck>
      </def:WhereClauseDef>
      <def:WhereClauseDef OID="WC.TU.TUORRES.00027">
        <RangeCheck Comparator="IN" SoftHard="Soft" def:ItemOID="IT.TU.EPOCH">
          <CheckValue>SCREENING</CheckValue>
          <CheckValue>TREATMENT</CheckValue>
        </RangeCheck>
        <RangeCheck Comparator="IN" SoftHard="Soft" def:ItemOID="IT.TU.TUEVAL">
          <CheckValue>ADJUDICATOR</CheckValue>
          <CheckValue>INDEPENDENT ASSESSOR</CheckValue>
          <CheckValue>INVESTIGATOR</CheckValue>
        </RangeCheck>
        <RangeCheck Comparator="IN" SoftHard="Soft" def:ItemOID="IT.TU.TUMETHOD">
          <CheckValue>CALIPER MEASUREMENT METHOD</CheckValue>
          <CheckValue>CT SCAN</CheckValue>
          <CheckValue>ENDOSCOPY</CheckValue>
          <CheckValue>LYMPHANGIOGRAPHY</CheckValue>
          <CheckValue>MAMMOGRAPHY</CheckValue>
          <CheckValue>MRI</CheckValue>
          <CheckValue>NUCLEAR RADIOLOGY</CheckValue>
          <CheckValue>PET SCAN</CheckValue>
          <CheckValue>PET/CT SCAN</CheckValue>
          <CheckValue>PET/MRI SCAN</CheckValue>
          <CheckValue>PHOTOGRAPHY</CheckValue>
          <CheckValue>SCINTIGRAPHY</CheckValue>
          <CheckValue>TOTAL BODY RADIOGRAPHY</CheckValue>
          <CheckValue>ULTRASOUND</CheckValue>
          <CheckValue>X-RAY</CheckValue>
        </RangeCheck>
        <RangeCheck Comparator="EQ" SoftHard="Soft" def:ItemOID="IT.TU.TUTESTCD">
          <CheckValue>TUMIDENT</CheckValue>
        </RangeCheck>
      </def:WhereClauseDef>
      <def:WhereClauseDef OID="WC.TU.TUSTRESC.00028">
        <RangeCheck Comparator="EQ" SoftHard="Soft" def:ItemOID="IT.TU.EPOCH">
          <CheckValue>SCREENING</CheckValue>
        </RangeCheck>
        <RangeCheck Comparator="EQ" SoftHard="Soft" def:ItemOID="IT.TU.TUEVAL">
          <CheckValue>INVESTIGATOR</CheckValue>
        </RangeCheck>
        <RangeCheck Comparator="EQ" SoftHard="Soft" def:ItemOID="IT.TU.TUTESTCD">
          <CheckValue>NTIND</CheckValue>
        </RangeCheck>
      </def:WhereClauseDef>
      <def:WhereClauseDef OID="WC.TU.TUSTRESC.00029">
        <RangeCheck Comparator="EQ" SoftHard="Soft" def:ItemOID="IT.TU.EPOCH">
          <CheckValue>SCREENING</CheckValue>
        </RangeCheck>
        <RangeCheck Comparator="EQ" SoftHard="Soft" def:ItemOID="IT.TU.TUEVAL">
          <CheckValue>INVESTIGATOR</CheckValue>
        </RangeCheck>
        <RangeCheck Comparator="EQ" SoftHard="Soft" def:ItemOID="IT.TU.TUTESTCD">
          <CheckValue>TIND</CheckValue>
        </RangeCheck>
      </def:WhereClauseDef>
      <def:WhereClauseDef OID="WC.TU.TUSTRESC.00030">
        <RangeCheck Comparator="EQ" SoftHard="Soft" def:ItemOID="IT.TU.EPOCH">
          <CheckValue>TREATMENT</CheckValue>
        </RangeCheck>
        <RangeCheck Comparator="IN" SoftHard="Soft" def:ItemOID="IT.TU.TUEVAL">
          <CheckValue>ADJUDICATOR</CheckValue>
          <CheckValue>INDEPENDENT ASSESSOR</CheckValue>
          <CheckValue>INVESTIGATOR</CheckValue>
        </RangeCheck>
        <RangeCheck Comparator="IN" SoftHard="Soft" def:ItemOID="IT.TU.TUMETHOD">
          <CheckValue>CALIPER MEASUREMENT METHOD</CheckValue>
          <CheckValue>CT SCAN</CheckValue>
          <CheckValue>ENDOSCOPY</CheckValue>
          <CheckValue>LYMPHANGIOGRAPHY</CheckValue>
          <CheckValue>MAMMOGRAPHY</CheckValue>
          <CheckValue>MRI</CheckValue>
          <CheckValue>NUCLEAR RADIOLOGY</CheckValue>
          <CheckValue>PET SCAN</CheckValue>
          <CheckValue>PET/CT SCAN</CheckValue>
          <CheckValue>PET/MRI SCAN</CheckValue>
          <CheckValue>PHOTOGRAPHY</CheckValue>
          <CheckValue>SCINTIGRAPHY</CheckValue>
          <CheckValue>TOTAL BODY RADIOGRAPHY</CheckValue>
          <CheckValue>ULTRASOUND</CheckValue>
          <CheckValue>X-RAY</CheckValue>
        </RangeCheck>
        <RangeCheck Comparator="EQ" SoftHard="Soft" def:ItemOID="IT.TU.TUTESTCD">
          <CheckValue>TUMERGE</CheckValue>
        </RangeCheck>
      </def:WhereClauseDef>
      <def:WhereClauseDef OID="WC.TU.TUSTRESC.00031">
        <RangeCheck Comparator="EQ" SoftHard="Soft" def:ItemOID="IT.TU.EPOCH">
          <CheckValue>TREATMENT</CheckValue>
        </RangeCheck>
        <RangeCheck Comparator="IN" SoftHard="Soft" def:ItemOID="IT.TU.TUEVAL">
          <CheckValue>ADJUDICATOR</CheckValue>
          <CheckValue>INDEPENDENT ASSESSOR</CheckValue>
          <CheckValue>INVESTIGATOR</CheckValue>
        </RangeCheck>
        <RangeCheck Comparator="IN" SoftHard="Soft" def:ItemOID="IT.TU.TUMETHOD">
          <CheckValue>CALIPER MEASUREMENT METHOD</CheckValue>
          <CheckValue>CT SCAN</CheckValue>
          <CheckValue>ENDOSCOPY</CheckValue>
          <CheckValue>LYMPHANGIOGRAPHY</CheckValue>
          <CheckValue>MAMMOGRAPHY</CheckValue>
          <CheckValue>MRI</CheckValue>
          <CheckValue>NUCLEAR RADIOLOGY</CheckValue>
          <CheckValue>PET SCAN</CheckValue>
          <CheckValue>PET/CT SCAN</CheckValue>
          <CheckValue>PET/MRI SCAN</CheckValue>
          <CheckValue>PHOTOGRAPHY</CheckValue>
          <CheckValue>SCINTIGRAPHY</CheckValue>
          <CheckValue>TOTAL BODY RADIOGRAPHY</CheckValue>
          <CheckValue>ULTRASOUND</CheckValue>
          <CheckValue>X-RAY</CheckValue>
        </RangeCheck>
        <RangeCheck Comparator="EQ" SoftHard="Soft" def:ItemOID="IT.TU.TUTESTCD">
          <CheckValue>TUSPLIT</CheckValue>
        </RangeCheck>
      </def:WhereClauseDef>
      <def:WhereClauseDef OID="WC.TU.TUSTRESC.00032">
        <RangeCheck Comparator="IN" SoftHard="Soft" def:ItemOID="IT.TU.EPOCH">
          <CheckValue>SCREENING</CheckValue>
          <CheckValue>TREATMENT</CheckValue>
        </RangeCheck>
        <RangeCheck Comparator="IN" SoftHard="Soft" def:ItemOID="IT.TU.TUEVAL">
          <CheckValue>ADJUDICATOR</CheckValue>
          <CheckValue>INDEPENDENT ASSESSOR</CheckValue>
          <CheckValue>INVESTIGATOR</CheckValue>
        </RangeCheck>
        <RangeCheck Comparator="IN" SoftHard="Soft" def:ItemOID="IT.TU.TUMETHOD">
          <CheckValue>CALIPER MEASUREMENT METHOD</CheckValue>
          <CheckValue>CT SCAN</CheckValue>
          <CheckValue>ENDOSCOPY</CheckValue>
          <CheckValue>LYMPHANGIOGRAPHY</CheckValue>
          <CheckValue>MAMMOGRAPHY</CheckValue>
          <CheckValue>MRI</CheckValue>
          <CheckValue>NUCLEAR RADIOLOGY</CheckValue>
          <CheckValue>PET SCAN</CheckValue>
          <CheckValue>PET/CT SCAN</CheckValue>
          <CheckValue>PET/MRI SCAN</CheckValue>
          <CheckValue>PHOTOGRAPHY</CheckValue>
          <CheckValue>SCINTIGRAPHY</CheckValue>
          <CheckValue>TOTAL BODY RADIOGRAPHY</CheckValue>
          <CheckValue>ULTRASOUND</CheckValue>
          <CheckValue>X-RAY</CheckValue>
        </RangeCheck>
        <RangeCheck Comparator="EQ" SoftHard="Soft" def:ItemOID="IT.TU.TUTESTCD">
          <CheckValue>TUMIDENT</CheckValue>
        </RangeCheck>
      </def:WhereClauseDef>
      <ItemGroupDef OID="IG.RS" Name="RS" Repeating="Yes" IsReferenceData="No" SASDatasetName="RS" Domain="RS" Purpose="Tabulation" def:Structure="One record per response assessment or clinical classification assessment per time point per visit per subject per assessor per medical evaluator" def:ArchiveLocationID="LF.RS" def:StandardOID="STD.1">
        <Description>
          <TranslatedText xml:lang="en">Disease Response and Clin Classification</TranslatedText>
        </Description>
        <ItemRef ItemOID="IT.RS.STUDYID" Mandatory="Yes" OrderNumber="1" KeySequence="1" Role="Identifier"/>
        <ItemRef ItemOID="IT.RS.DOMAIN" Mandatory="Yes" OrderNumber="2" Role="Identifier"/>
        <ItemRef ItemOID="IT.RS.USUBJID" Mandatory="Yes" OrderNumber="3" KeySequence="3" Role="Identifier"/>
        <ItemRef ItemOID="IT.RS.RSSEQ" Mandatory="Yes" OrderNumber="4" Role="Identifier"/>
        <ItemRef ItemOID="IT.RS.RSGRPID" Mandatory="No" OrderNumber="5" KeySequence="8" Role="Identifier"/>
        <ItemRef ItemOID="IT.RS.RSREFID" Mandatory="No" OrderNumber="6" Role="Identifier"/>
        <ItemRef ItemOID="IT.RS.RSSPID" Mandatory="No" OrderNumber="7" Role="Identifier"/>
        <ItemRef ItemOID="IT.RS.RSLNKID" Mandatory="No" OrderNumber="8" Role="Identifier"/>
        <ItemRef ItemOID="IT.RS.RSLNKGRP" Mandatory="No" OrderNumber="9" Role="Identifier"/>
        <ItemRef ItemOID="IT.RS.RSTESTCD" Mandatory="Yes" OrderNumber="10" KeySequence="4" Role="Topic"/>
        <ItemRef ItemOID="IT.RS.RSTEST" Mandatory="Yes" OrderNumber="11" Role="Synonym Qualifier"/>
        <ItemRef ItemOID="IT.RS.RSCAT" Mandatory="No" OrderNumber="12" Role="Grouping Qualifier"/>
        <ItemRef ItemOID="IT.RS.RSSCAT" Mandatory="No" OrderNumber="13" Role="Grouping Qualifier"/>
        <ItemRef ItemOID="IT.RS.RSORRES" Mandatory="No" OrderNumber="14" Role="Result Qualifier"/>
        <ItemRef ItemOID="IT.RS.RSORRESU" Mandatory="No" OrderNumber="15" Role="Variable Qualifier"/>
        <ItemRef ItemOID="IT.RS.RSSTRESC" Mandatory="No" OrderNumber="16" Role="Result Qualifier"/>
        <ItemRef ItemOID="IT.RS.RSSTRESN" Mandatory="No" OrderNumber="17" Role="Result Qualifier"/>
        <ItemRef ItemOID="IT.RS.RSSTRESU" Mandatory="No" OrderNumber="18" Role="Variable Qualifier"/>
        <ItemRef ItemOID="IT.RS.RSSTAT" Mandatory="No" OrderNumber="19" Role="Record Qualifier"/>
        <ItemRef ItemOID="IT.RS.RSREASND" Mandatory="No" OrderNumber="20" Role="Record Qualifier"/>
        <ItemRef ItemOID="IT.RS.RSNAM" Mandatory="No" OrderNumber="21" KeySequence="5" Role="Record Qualifier"/>
        <ItemRef ItemOID="IT.RS.RSLOBXFL" Mandatory="No" OrderNumber="22" Role="Record Qualifier"/>
        <ItemRef ItemOID="IT.RS.RSBLFL" Mandatory="No" OrderNumber="23" Role="Record Qualifier"/>
        <ItemRef ItemOID="IT.RS.RSDRVFL" Mandatory="No" OrderNumber="24" Role="Record Qualifier"/>
        <ItemRef ItemOID="IT.RS.RSEVAL" Mandatory="No" OrderNumber="25" KeySequence="6" Role="Record Qualifier"/>
        <ItemRef ItemOID="IT.RS.RSEVALID" Mandatory="No" OrderNumber="26" KeySequence="7" Role="Variable Qualifier"/>
        <ItemRef ItemOID="IT.RS.RSACPTFL" Mandatory="No" OrderNumber="27" Role="Record Qualifier"/>
        <ItemRef ItemOID="IT.RS.VISITNUM" Mandatory="No" OrderNumber="28" KeySequence="9" Role="Timing"/>
        <ItemRef ItemOID="IT.RS.VISIT" Mandatory="No" OrderNumber="29" Role="Timing"/>
        <ItemRef ItemOID="IT.RS.VISITDY" Mandatory="No" OrderNumber="30" Role="Timing"/>
        <ItemRef ItemOID="IT.RS.TAETORD" Mandatory="No" OrderNumber="31" Role="Timing"/>
        <ItemRef ItemOID="IT.RS.EPOCH" Mandatory="No" OrderNumber="32" Role="Timing"/>
        <ItemRef ItemOID="IT.RS.RSDTC" Mandatory="No" OrderNumber="33" KeySequence="2" Role="Timing"/>
        <ItemRef ItemOID="IT.RS.RSDY" Mandatory="No" OrderNumber="34" Role="Timing"/>
        <ItemRef ItemOID="IT.RS.RSTPT" Mandatory="No" OrderNumber="35" Role="Timing"/>
        <ItemRef ItemOID="IT.RS.RSTPTNUM" Mandatory="No" OrderNumber="36" Role="Timing"/>
        <ItemRef ItemOID="IT.RS.RSELTM" Mandatory="No" OrderNumber="37" Role="Timing"/>
        <ItemRef ItemOID="IT.RS.RSTPTREF" Mandatory="No" OrderNumber="38" Role="Timing"/>
        <ItemRef ItemOID="IT.RS.RSRFTDTC" Mandatory="No" OrderNumber="39" Role="Timing"/>
        <ItemRef ItemOID="IT.RS.RSEVLINT" Mandatory="No" OrderNumber="40" Role="Timing"/>
        <ItemRef ItemOID="IT.RS.RSEVINTX" Mandatory="No" OrderNumber="41" Role="Timing"/>
        <ItemRef ItemOID="IT.RS.RSSTRTPT" Mandatory="No" OrderNumber="42" Role="Timing"/>
        <ItemRef ItemOID="IT.RS.RSSTTPT" Mandatory="No" OrderNumber="43" Role="Timing"/>
        <ItemRef ItemOID="IT.RS.RSENRTPT" Mandatory="No" OrderNumber="44" Role="Timing"/>
        <ItemRef ItemOID="IT.RS.RSENTPT" Mandatory="No" OrderNumber="45" Role="Timing"/>
        <def:Class Name="FINDINGS"/>
        <def:leaf ID="LF.RS" xlink:href="rs.xpt">
          <def:title>rs.xpt</def:title>
        </def:leaf>
      </ItemGroupDef>
      <ItemGroupDef OID="IG.TR" Name="TR" Repeating="Yes" IsReferenceData="No" SASDatasetName="TR" Domain="TR" Purpose="Tabulation" def:Structure="One record per tumor measurement/assessment per visit per subject per assessor" def:ArchiveLocationID="LF.TR" def:StandardOID="STD.1">
        <Description>
          <TranslatedText xml:lang="en">Tumor/Lesion Results</TranslatedText>
        </Description>
        <ItemRef ItemOID="IT.TR.STUDYID" Mandatory="Yes" OrderNumber="1" KeySequence="1" Role="Identifier"/>
        <ItemRef ItemOID="IT.TR.DOMAIN" Mandatory="Yes" OrderNumber="2" Role="Identifier"/>
        <ItemRef ItemOID="IT.TR.USUBJID" Mandatory="Yes" OrderNumber="3" KeySequence="4" Role="Identifier"/>
        <ItemRef ItemOID="IT.TR.TRSEQ" Mandatory="Yes" OrderNumber="4" Role="Identifier"/>
        <ItemRef ItemOID="IT.TR.TRGRPID" Mandatory="No" OrderNumber="5" Role="Identifier"/>
        <ItemRef ItemOID="IT.TR.TRREFID" Mandatory="No" OrderNumber="6" Role="Identifier"/>
        <ItemRef ItemOID="IT.TR.TRSPID" Mandatory="No" OrderNumber="7" Role="Identifier"/>
        <ItemRef ItemOID="IT.TR.TRLNKID" Mandatory="No" OrderNumber="8" KeySequence="10" Role="Identifier"/>
        <ItemRef ItemOID="IT.TR.TRLNKGRP" Mandatory="No" OrderNumber="9" Role="Identifier"/>
        <ItemRef ItemOID="IT.TR.TRTESTCD" Mandatory="Yes" OrderNumber="10" KeySequence="5" Role="Topic"/>
        <ItemRef ItemOID="IT.TR.TRTEST" Mandatory="Yes" OrderNumber="11" Role="Synonym Qualifier"/>
        <ItemRef ItemOID="IT.TR.TRORRES" Mandatory="No" OrderNumber="12" Role="Result Qualifier"/>
        <ItemRef ItemOID="IT.TR.TRORRESU" Mandatory="No" OrderNumber="13" Role="Variable Qualifier"/>
        <ItemRef ItemOID="IT.TR.TRSTRESC" Mandatory="No" OrderNumber="14" Role="Result Qualifier"/>
        <ItemRef ItemOID="IT.TR.TRSTRESN" Mandatory="No" OrderNumber="15" Role="Result Qualifier"/>
        <ItemRef ItemOID="IT.TR.TRSTRESU" Mandatory="No" OrderNumber="16" Role="Variable Qualifier"/>
        <ItemRef ItemOID="IT.TR.TRSTAT" Mandatory="No" OrderNumber="17" Role="Record Qualifier"/>
        <ItemRef ItemOID="IT.TR.TRREASND" Mandatory="No" OrderNumber="18" Role="Record Qualifier"/>
        <ItemRef ItemOID="IT.TR.TRNAM" Mandatory="No" OrderNumber="19" KeySequence="7" Role="Record Qualifier"/>
        <ItemRef ItemOID="IT.TR.TRMETHOD" Mandatory="No" OrderNumber="20" KeySequence="6" Role="Record Qualifier"/>
        <ItemRef ItemOID="IT.TR.TRLOBXFL" Mandatory="No" OrderNumber="21" Role="Record Qualifier"/>
        <ItemRef ItemOID="IT.TR.TRBLFL" Mandatory="No" OrderNumber="22" Role="Record Qualifier"/>
        <ItemRef ItemOID="IT.TR.TREVAL" Mandatory="No" OrderNumber="23" KeySequence="8" Role="Record Qualifier"/>
        <ItemRef ItemOID="IT.TR.TREVALID" Mandatory="No" OrderNumber="24" KeySequence="9" Role="Variable Qualifier"/>
        <ItemRef ItemOID="IT.TR.TRACPTFL" Mandatory="No" OrderNumber="25" Role="Record Qualifier"/>
        <ItemRef ItemOID="IT.TR.VISITNUM" Mandatory="No" OrderNumber="26" KeySequence="2" Role="Timing"/>
        <ItemRef ItemOID="IT.TR.VISIT" Mandatory="No" OrderNumber="27" Role="Timing"/>
        <ItemRef ItemOID="IT.TR.VISITDY" Mandatory="No" OrderNumber="28" Role="Timing"/>
        <ItemRef ItemOID="IT.TR.TAETORD" Mandatory="No" OrderNumber="29" Role="Timing"/>
        <ItemRef ItemOID="IT.TR.EPOCH" Mandatory="No" OrderNumber="30" Role="Timing"/>
        <ItemRef ItemOID="IT.TR.TRDTC" Mandatory="No" OrderNumber="31" KeySequence="3" Role="Timing"/>
        <ItemRef ItemOID="IT.TR.TRDY" Mandatory="No" OrderNumber="32" Role="Timing"/>
        <def:Class Name="FINDINGS"/>
        <def:leaf ID="LF.TR" xlink:href="tr.xpt">
          <def:title>tr.xpt</def:title>
        </def:leaf>
      </ItemGroupDef>
      <ItemGroupDef OID="IG.TU" Name="TU" Repeating="Yes" IsReferenceData="No" SASDatasetName="TU" Domain="TU" Purpose="Tabulation" def:Structure="One record per identified tumor per subject per assessor" def:ArchiveLocationID="LF.TU" def:StandardOID="STD.1">
        <Description>
          <TranslatedText xml:lang="en">Tumor/Lesion Identification</TranslatedText>
        </Description>
        <ItemRef ItemOID="IT.TU.STUDYID" Mandatory="Yes" OrderNumber="1" KeySequence="1" Role="Identifier"/>
        <ItemRef ItemOID="IT.TU.DOMAIN" Mandatory="Yes" OrderNumber="2" Role="Identifier"/>
        <ItemRef ItemOID="IT.TU.USUBJID" Mandatory="Yes" OrderNumber="3" KeySequence="6" Role="Identifier"/>
        <ItemRef ItemOID="IT.TU.TUSEQ" Mandatory="Yes" OrderNumber="4" Role="Identifier"/>
        <ItemRef ItemOID="IT.TU.TUGRPID" Mandatory="No" OrderNumber="5" Role="Identifier"/>
        <ItemRef ItemOID="IT.TU.TUREFID" Mandatory="No" OrderNumber="6" Role="Identifier"/>
        <ItemRef ItemOID="IT.TU.TUSPID" Mandatory="No" OrderNumber="7" Role="Identifier"/>
        <ItemRef ItemOID="IT.TU.TULNKID" Mandatory="No" OrderNumber="8" KeySequence="3" Role="Identifier"/>
        <ItemRef ItemOID="IT.TU.TULNKGRP" Mandatory="No" OrderNumber="9" Role="Identifier"/>
        <ItemRef ItemOID="IT.TU.TUTESTCD" Mandatory="Yes" OrderNumber="10" KeySequence="7" Role="Topic"/>
        <ItemRef ItemOID="IT.TU.TUTEST" Mandatory="Yes" OrderNumber="11" Role="Synonym Qualifier"/>
        <ItemRef ItemOID="IT.TU.TUORRES" Mandatory="No" OrderNumber="12" Role="Result Qualifier"/>
        <ItemRef ItemOID="IT.TU.TUSTRESC" Mandatory="No" OrderNumber="13" Role="Result Qualifier"/>
        <ItemRef ItemOID="IT.TU.TUNAM" Mandatory="No" OrderNumber="14" KeySequence="11" Role="Record Qualifier"/>
        <ItemRef ItemOID="IT.TU.TULOC" Mandatory="No" OrderNumber="15" KeySequence="8" Role="Record Qualifier"/>
        <ItemRef ItemOID="IT.TU.TULAT" Mandatory="No" OrderNumber="16" KeySequence="9" Role="Variable Qualifier"/>
        <ItemRef ItemOID="IT.TU.TUDIR" Mandatory="No" OrderNumber="17" Role="Variable Qualifier"/>
        <ItemRef ItemOID="IT.TU.TUPORTOT" Mandatory="No" OrderNumber="18" Role="Variable Qualifier"/>
        <ItemRef ItemOID="IT.TU.TUMETHOD" Mandatory="No" OrderNumber="19" KeySequence="10" Role="Record Qualifier"/>
        <ItemRef ItemOID="IT.TU.TULOBXFL" Mandatory="No" OrderNumber="20" Role="Record Qualifier"/>
        <ItemRef ItemOID="IT.TU.TUBLFL" Mandatory="No" OrderNumber="21" Role="Record Qualifier"/>
        <ItemRef ItemOID="IT.TU.TUEVAL" Mandatory="No" OrderNumber="22" KeySequence="12" Role="Record Qualifier"/>
        <ItemRef ItemOID="IT.TU.TUEVALID" Mandatory="No" OrderNumber="23" KeySequence="2" Role="Variable Qualifier"/>
        <ItemRef ItemOID="IT.TU.TUACPTFL" Mandatory="No" OrderNumber="24" Role="Record Qualifier"/>
        <ItemRef ItemOID="IT.TU.VISITNUM" Mandatory="No" OrderNumber="25" KeySequence="4" Role="Timing"/>
        <ItemRef ItemOID="IT.TU.VISIT" Mandatory="No" OrderNumber="26" Role="Timing"/>
        <ItemRef ItemOID="IT.TU.VISITDY" Mandatory="No" OrderNumber="27" Role="Timing"/>
        <ItemRef ItemOID="IT.TU.TAETORD" Mandatory="No" OrderNumber="28" Role="Timing"/>
        <ItemRef ItemOID="IT.TU.EPOCH" Mandatory="No" OrderNumber="29" Role="Timing"/>
        <ItemRef ItemOID="IT.TU.TUDTC" Mandatory="No" OrderNumber="30" KeySequence="5" Role="Timing"/>
        <ItemRef ItemOID="IT.TU.TUDY" Mandatory="No" OrderNumber="31" Role="Timing"/>
        <ItemRef ItemOID="IT.TU.PRVIR" Mandatory="No" OrderNumber="32" Role="Non-Standard Result Qualifier" def:IsNonStandard="Yes"/>
        <ItemRef ItemOID="IT.TU.PRVIRP" Mandatory="No" OrderNumber="33" Role="Non-Standard Result Qualifier" def:IsNonStandard="Yes"/>
        <def:Class Name="FINDINGS"/>
        <def:leaf ID="LF.TU" xlink:href="tu.xpt">
          <def:title>tu.xpt</def:title>
        </def:leaf>
      </ItemGroupDef>
      <ItemDef OID="IT.RS.DOMAIN" Name="DOMAIN" DataType="text" Length="4" SASFieldName="DOMAIN">
        <Description>
          <TranslatedText xml:lang="en">Domain Abbreviation</TranslatedText>
        </Description>
        <def:Origin Type="Assigned" Source="Sponsor"/>
      </ItemDef>
      <ItemDef OID="IT.RS.EPOCH" Name="EPOCH" DataType="text" Length="200" SASFieldName="EPOCH">
        <Description>
          <TranslatedText xml:lang="en">Epoch</TranslatedText>
        </Description>
        <CodeListRef CodeListOID="CL.EPOCH"/>
        <def:Origin Type="Derived" Source="Sponsor"/>
      </ItemDef>
      <ItemDef OID="IT.RS.RSACPTFL" Name="RSACPTFL" DataType="text" Length="1" SASFieldName="RSACPTFL">
        <Description>
          <TranslatedText xml:lang="en">Accepted Record Flag</TranslatedText>
        </Description>
        <CodeListRef CodeListOID="CL.NY"/>
        <def:Origin Type="Collected" Source="Investigator"/>
      </ItemDef>
      <ItemDef OID="IT.RS.RSBLFL" Name="RSBLFL" DataType="text" Length="1" SASFieldName="RSBLFL">
        <Description>
          <TranslatedText xml:lang="en">Baseline Flag</TranslatedText>
        </Description>
        <CodeListRef CodeListOID="CL.NY"/>
        <def:Origin Type="Collected" Source="Investigator"/>
      </ItemDef>
      <ItemDef OID="IT.RS.RSCAT" Name="RSCAT" DataType="text" Length="200" SASFieldName="RSCAT">
        <Description>
          <TranslatedText xml:lang="en">Category for Assessment</TranslatedText>
        </Description>
        <CodeListRef CodeListOID="CL.ONCRSCAT"/>
        <def:Origin Type="Collected" Source="Investigator"/>
      </ItemDef>
      <ItemDef OID="IT.RS.RSDRVFL" Name="RSDRVFL" DataType="text" Length="1" SASFieldName="RSDRVFL">
        <Description>
          <TranslatedText xml:lang="en">Derived Flag</TranslatedText>
        </Description>
        <CodeListRef CodeListOID="CL.NY"/>
        <def:Origin Type="Collected" Source="Investigator"/>
      </ItemDef>
      <ItemDef OID="IT.RS.RSDTC" Name="RSDTC" DataType="datetime" SASFieldName="RSDTC">
        <Description>
          <TranslatedText xml:lang="en">Date/Time of Assessment</TranslatedText>
        </Description>
        <def:Origin Type="Collected" Source="Investigator"/>
      </ItemDef>
      <ItemDef OID="IT.RS.RSDY" Name="RSDY" DataType="integer" Length="8" SASFieldName="RSDY" def:DisplayFormat="9">
        <Description>
          <TranslatedText xml:lang="en">Study Day of Assessment</TranslatedText>
        </Description>
        <def:Origin Type="Derived" Source="Sponsor"/>
      </ItemDef>
      <ItemDef OID="IT.RS.RSELTM" Name="RSELTM" DataType="text" Length="200" SASFieldName="RSELTM">
        <Description>
          <TranslatedText xml:lang="en">Planned Elapsed Time from Time Point Ref</TranslatedText>
        </Description>
        <def:Origin Type="Collected" Source="Investigator"/>
      </ItemDef>
      <ItemDef OID="IT.RS.RSENRTPT" Name="RSENRTPT" DataType="text" Length="200" SASFieldName="RSENRTPT">
        <Description>
          <TranslatedText xml:lang="en">End Relative to Reference Time Point</TranslatedText>
        </Description>
        <CodeListRef CodeListOID="CL.STENRF"/>
        <def:Origin Type="Collected" Source="Investigator"/>
      </ItemDef>
      <ItemDef OID="IT.RS.RSENTPT" Name="RSENTPT" DataType="text" Length="200" SASFieldName="RSENTPT">
        <Description>
          <TranslatedText xml:lang="en">End Reference Time Point</TranslatedText>
        </Description>
        <def:Origin Type="Collected" Source="Investigator"/>
      </ItemDef>
      <ItemDef OID="IT.RS.RSEVAL" Name="RSEVAL" DataType="text" Length="200" SASFieldName="RSEVAL">
        <Description>
          <TranslatedText xml:lang="en">Evaluator</TranslatedText>
        </Description>
        <CodeListRef CodeListOID="CL.EVAL"/>
        <def:Origin Type="Collected" Source="Investigator"/>
      </ItemDef>
      <ItemDef OID="IT.RS.RSEVALID" Name="RSEVALID" DataType="text" Length="200" SASFieldName="RSEVALID">
        <Description>
          <TranslatedText xml:lang="en">Evaluator Identifier</TranslatedText>
        </Description>
        <CodeListRef CodeListOID="CL.MEDEVAL"/>
        <def:Origin Type="Assigned" Source="Sponsor"/>
      </ItemDef>
      <ItemDef OID="IT.RS.RSEVINTX" Name="RSEVINTX" DataType="text" Length="200" SASFieldName="RSEVINTX">
        <Description>
          <TranslatedText xml:lang="en">Evaluation Interval Text</TranslatedText>
        </Description>
        <def:Origin Type="Collected" Source="Investigator"/>
      </ItemDef>
      <ItemDef OID="IT.RS.RSEVLINT" Name="RSEVLINT" DataType="text" Length="200" SASFieldName="RSEVLINT">
        <Description>
          <TranslatedText xml:lang="en">Evaluation Interval</TranslatedText>
        </Description>
        <def:Origin Type="Collected" Source="Investigator"/>
      </ItemDef>
      <ItemDef OID="IT.RS.RSGRPID" Name="RSGRPID" DataType="text" Length="200" SASFieldName="RSGRPID">
        <Description>
          <TranslatedText xml:lang="en">Group ID</TranslatedText>
        </Description>
        <def:Origin Type="Collected" Source="Investigator"/>
      </ItemDef>
      <ItemDef OID="IT.RS.RSLNKGRP" Name="RSLNKGRP" DataType="text" Length="200" SASFieldName="RSLNKGRP">
        <Description>
          <TranslatedText xml:lang="en">Link Group ID</TranslatedText>
        </Description>
        <def:Origin Type="Assigned" Source="Sponsor"/>
      </ItemDef>
      <ItemDef OID="IT.RS.RSLNKID" Name="RSLNKID" DataType="text" Length="20" SASFieldName="RSLNKID">
        <Description>
          <TranslatedText xml:lang="en">Link ID</TranslatedText>
        </Description>
        <def:Origin Type="Collected" Source="Investigator"/>
      </ItemDef>
      <ItemDef OID="IT.RS.RSLOBXFL" Name="RSLOBXFL" DataType="text" Length="1" SASFieldName="RSLOBXFL">
        <Description>
          <TranslatedText xml:lang="en">Last Observation Before Exposure Flag</TranslatedText>
        </Description>
        <CodeListRef CodeListOID="CL.NY"/>
        <def:Origin Type="Collected" Source="Investigator"/>
      </ItemDef>
      <ItemDef OID="IT.RS.RSNAM" Name="RSNAM" DataType="text" Length="200" SASFieldName="RSNAM">
        <Description>
          <TranslatedText xml:lang="en">Vendor Name</TranslatedText>
        </Description>
        <def:Origin Type="Collected" Source="Investigator"/>
      </ItemDef>
      <ItemDef OID="IT.RS.RSORRES" Name="RSORRES" DataType="text" Length="200" SASFieldName="RSORRES">
        <Description>
          <TranslatedText xml:lang="en">Result or Finding in Original Units</TranslatedText>
        </Description>
        <def:ValueListRef ValueListOID="VL.RS.RSORRES"/>
      </ItemDef>
      <ItemDef OID="IT.RS.RSORRESU" Name="RSORRESU" DataType="text" Length="200" SASFieldName="RSORRESU">
        <Description>
          <TranslatedText xml:lang="en">Original Units</TranslatedText>
        </Description>
        <def:Origin Type="Collected" Source="Investigator"/>
      </ItemDef>
      <ItemDef OID="IT.RS.RSREASND" Name="RSREASND" DataType="text" Length="200" SASFieldName="RSREASND">
        <Description>
          <TranslatedText xml:lang="en">Reason Not Done</TranslatedText>
        </Description>
        <def:Origin Type="Collected" Source="Investigator"/>
      </ItemDef>
      <ItemDef OID="IT.RS.RSREFID" Name="RSREFID" DataType="text" Length="200" SASFieldName="RSREFID">
        <Description>
          <TranslatedText xml:lang="en">Reference ID</TranslatedText>
        </Description>
        <def:Origin Type="Collected" Source="Investigator"/>
      </ItemDef>
      <ItemDef OID="IT.RS.RSRFTDTC" Name="RSRFTDTC" DataType="text" SASFieldName="RSRFTDTC">
        <Description>
          <TranslatedText xml:lang="en">Date/Time of Reference Time Point</TranslatedText>
        </Description>
        <def:Origin Type="Collected" Source="Investigator"/>
      </ItemDef>
      <ItemDef OID="IT.RS.RSSCAT" Name="RSSCAT" DataType="text" Length="200" SASFieldName="RSSCAT">
        <Description>
          <TranslatedText xml:lang="en">Subcategory</TranslatedText>
        </Description>
        <def:Origin Type="Collected" Source="Investigator"/>
      </ItemDef>
      <ItemDef OID="IT.RS.RSSEQ" Name="RSSEQ" DataType="integer" Length="8" SASFieldName="RSSEQ" def:DisplayFormat="9">
        <Description>
          <TranslatedText xml:lang="en">Sequence Number</TranslatedText>
        </Description>
        <def:Origin Type="Derived" Source="Sponsor"/>
      </ItemDef>
      <ItemDef OID="IT.RS.RSSPID" Name="RSSPID" DataType="text" Length="200" SASFieldName="RSSPID">
        <Description>
          <TranslatedText xml:lang="en">Sponsor-Defined Identifier</TranslatedText>
        </Description>
        <def:Origin Type="Assigned" Source="Sponsor"/>
      </ItemDef>
      <ItemDef OID="IT.RS.RSSTAT" Name="RSSTAT" DataType="text" Length="8" SASFieldName="RSSTAT">
        <Description>
          <TranslatedText xml:lang="en">Completion Status</TranslatedText>
        </Description>
        <CodeListRef CodeListOID="CL.ND"/>
        <def:Origin Type="Collected" Source="Investigator"/>
      </ItemDef>
      <ItemDef OID="IT.RS.RSSTRESC" Name="RSSTRESC" DataType="text" Length="200" SASFieldName="RSSTRESC">
        <Description>
          <TranslatedText xml:lang="en">Character Result/Finding in Std Format</TranslatedText>
        </Description>
        <CodeListRef CodeListOID="CL.ONCRSR"/>
        <def:ValueListRef ValueListOID="VL.RS.RSSTRESC"/>
      </ItemDef>
      <ItemDef OID="IT.RS.RSSTRESN" Name="RSSTRESN" DataType="float" Length="8" SASFieldName="RSSTRESN">
        <Description>
          <TranslatedText xml:lang="en">Numeric Result/Finding in Standard Units</TranslatedText>
        </Description>
        <def:Origin Type="Collected" Source="Investigator"/>
      </ItemDef>
      <ItemDef OID="IT.RS.RSSTRESU" Name="RSSTRESU" DataType="text" Length="200" SASFieldName="RSSTRESU">
        <Description>
          <TranslatedText xml:lang="en">Standard Units</TranslatedText>
        </Description>
        <def:Origin Type="Collected" Source="Investigator"/>
      </ItemDef>
      <ItemDef OID="IT.RS.RSSTRTPT" Name="RSSTRTPT" DataType="text" Length="200" SASFieldName="RSSTRTPT">
        <Description>
          <TranslatedText xml:lang="en">Start Relative to Reference Time Point</TranslatedText>
        </Description>
        <CodeListRef CodeListOID="CL.STENRF"/>
        <def:Origin Type="Assigned" Source="Sponsor"/>
      </ItemDef>
      <ItemDef OID="IT.RS.RSSTTPT" Name="RSSTTPT" DataType="text" Length="200" SASFieldName="RSSTTPT">
        <Description>
          <TranslatedText xml:lang="en">Start Reference Time Point</TranslatedText>
        </Description>
        <def:Origin Type="Assigned" Source="Sponsor"/>
      </ItemDef>
      <ItemDef OID="IT.RS.RSTEST" Name="RSTEST" DataType="text" Length="40" SASFieldName="RSTEST">
        <Description>
          <TranslatedText xml:lang="en">Assessment Name</TranslatedText>
        </Description>
        <CodeListRef CodeListOID="CL.ONCRTS"/>
        <def:Origin Type="Collected" Source="Investigator"/>
      </ItemDef>
      <ItemDef OID="IT.RS.RSTESTCD" Name="RSTESTCD" DataType="text" Length="8" SASFieldName="RSTESTCD">
        <Description>
          <TranslatedText xml:lang="en">Assessment Short Name</TranslatedText>
        </Description>
        <CodeListRef CodeListOID="CL.ONCRTSCD"/>
        <def:Origin Type="Assigned" Source="Sponsor"/>
      </ItemDef>
      <ItemDef OID="IT.RS.RSTPT" Name="RSTPT" DataType="text" Length="200" SASFieldName="RSTPT">
        <Description>
          <TranslatedText xml:lang="en">Planned Time Point Name</TranslatedText>
        </Description>
        <def:Origin Type="Collected" Source="Investigator"/>
      </ItemDef>
      <ItemDef OID="IT.RS.RSTPTNUM" Name="RSTPTNUM" DataType="integer" Length="8" SASFieldName="RSTPTNUM">
        <Description>
          <TranslatedText xml:lang="en">Planned Time Point Number</TranslatedText>
        </Description>
        <def:Origin Type="Collected" Source="Investigator"/>
      </ItemDef>
      <ItemDef OID="IT.RS.RSTPTREF" Name="RSTPTREF" DataType="text" Length="200" SASFieldName="RSTPTREF">
        <Description>
          <TranslatedText xml:lang="en">Time Point Reference</TranslatedText>
        </Description>
        <def:Origin Type="Collected" Source="Investigator"/>
      </ItemDef>
      <ItemDef OID="IT.RS.STUDYID" Name="STUDYID" DataType="text" Length="10" SASFieldName="STUDYID">
        <Description>
          <TranslatedText xml:lang="en">Study Identifier</TranslatedText>
        </Description>
        <def:Origin Type="Protocol" Source="Sponsor"/>
      </ItemDef>
      <ItemDef OID="IT.RS.TAETORD" Name="TAETORD" DataType="integer" Length="8" SASFieldName="TAETORD">
        <Description>
          <TranslatedText xml:lang="en">Planned Order of Element within Arm</TranslatedText>
        </Description>
        <def:Origin Type="Assigned" Source="Sponsor"/>
      </ItemDef>
      <ItemDef OID="IT.RS.USUBJID" Name="USUBJID" DataType="text" Length="20" SASFieldName="USUBJID">
        <Description>
          <TranslatedText xml:lang="en">Unique Subject Identifier</TranslatedText>
        </Description>
        <def:Origin Type="Derived" Source="Sponsor"/>
      </ItemDef>
      <ItemDef OID="IT.RS.VISIT" Name="VISIT" DataType="text" Length="40" SASFieldName="VISIT">
        <Description>
          <TranslatedText xml:lang="en">Visit Name</TranslatedText>
        </Description>
        <def:Origin Type="Protocol" Source="Sponsor"/>
      </ItemDef>
      <ItemDef OID="IT.RS.VISITDY" Name="VISITDY" DataType="integer" Length="8" SASFieldName="VISITDY">
        <Description>
          <TranslatedText xml:lang="en">Planned Study Day of Visit</TranslatedText>
        </Description>
        <def:Origin Type="Collected" Source="Investigator"/>
      </ItemDef>
      <ItemDef OID="IT.RS.VISITNUM" Name="VISITNUM" DataType="float" Length="6" SignificantDigits="2" SASFieldName="VISITNUM" def:DisplayFormat="8.2">
        <Description>
          <TranslatedText xml:lang="en">Visit Number</TranslatedText>
        </Description>
        <def:Origin Type="Assigned" Source="Sponsor"/>
      </ItemDef>
      <ItemDef OID="IT.TR.DOMAIN" Name="DOMAIN" DataType="text" Length="4" SASFieldName="DOMAIN">
        <Description>
          <TranslatedText xml:lang="en">Domain Abbreviation</TranslatedText>
        </Description>
        <def:Origin Type="Assigned" Source="Sponsor"/>
      </ItemDef>
      <ItemDef OID="IT.TR.EPOCH" Name="EPOCH" DataType="text" Length="200" SASFieldName="EPOCH">
        <Description>
          <TranslatedText xml:lang="en">Epoch</TranslatedText>
        </Description>
        <CodeListRef CodeListOID="CL.EPOCH"/>
        <def:Origin Type="Derived" Source="Sponsor"/>
      </ItemDef>
      <ItemDef OID="IT.TR.STUDYID" Name="STUDYID" DataType="text" Length="10" SASFieldName="STUDYID">
        <Description>
          <TranslatedText xml:lang="en">Study Identifier</TranslatedText>
        </Description>
        <def:Origin Type="Protocol" Source="Sponsor"/>
      </ItemDef>
      <ItemDef OID="IT.TR.TAETORD" Name="TAETORD" DataType="integer" Length="8" SASFieldName="TAETORD">
        <Description>
          <TranslatedText xml:lang="en">Planned Order of Element within Arm</TranslatedText>
        </Description>
        <def:Origin Type="Assigned" Source="Sponsor"/>
      </ItemDef>
      <ItemDef OID="IT.TR.TRACPTFL" Name="TRACPTFL" DataType="text" Length="1" SASFieldName="TRACPTFL">
        <Description>
          <TranslatedText xml:lang="en">Accepted Record Flag</TranslatedText>
        </Description>
        <CodeListRef CodeListOID="CL.NY"/>
        <def:Origin Type="Collected" Source="Investigator"/>
      </ItemDef>
      <ItemDef OID="IT.TR.TRBLFL" Name="TRBLFL" DataType="text" Length="1" SASFieldName="TRBLFL">
        <Description>
          <TranslatedText xml:lang="en">Baseline Flag</TranslatedText>
        </Description>
        <CodeListRef CodeListOID="CL.NY"/>
        <def:Origin Type="Collected" Source="Investigator"/>
      </ItemDef>
      <ItemDef OID="IT.TR.TRDTC" Name="TRDTC" DataType="datetime" SASFieldName="TRDTC">
        <Description>
          <TranslatedText xml:lang="en">Date/Time of Tumor/Lesion Measurement</TranslatedText>
        </Description>
        <def:Origin Type="Collected" Source="Investigator"/>
      </ItemDef>
      <ItemDef OID="IT.TR.TRDY" Name="TRDY" DataType="integer" Length="8" SASFieldName="TRDY" def:DisplayFormat="9">
        <Description>
          <TranslatedText xml:lang="en">Study Day of Tumor/Lesion Measurement</TranslatedText>
        </Description>
        <def:Origin Type="Derived" Source="Sponsor"/>
      </ItemDef>
      <ItemDef OID="IT.TR.TREVAL" Name="TREVAL" DataType="text" Length="200" SASFieldName="TREVAL">
        <Description>
          <TranslatedText xml:lang="en">Evaluator</TranslatedText>
        </Description>
        <CodeListRef CodeListOID="CL.EVAL"/>
        <def:Origin Type="Collected" Source="Investigator"/>
      </ItemDef>
      <ItemDef OID="IT.TR.TREVALID" Name="TREVALID" DataType="text" Length="200" SASFieldName="TREVALID">
        <Description>
          <TranslatedText xml:lang="en">Evaluator Identifier</TranslatedText>
        </Description>
        <CodeListRef CodeListOID="CL.MEDEVAL"/>
        <def:Origin Type="Assigned" Source="Sponsor"/>
      </ItemDef>
      <ItemDef OID="IT.TR.TRGRPID" Name="TRGRPID" DataType="text" Length="200" SASFieldName="TRGRPID">
        <Description>
          <TranslatedText xml:lang="en">Group ID</TranslatedText>
        </Description>
        <def:Origin Type="Collected" Source="Investigator"/>
      </ItemDef>
      <ItemDef OID="IT.TR.TRLNKGRP" Name="TRLNKGRP" DataType="text" Length="200" SASFieldName="TRLNKGRP">
        <Description>
          <TranslatedText xml:lang="en">Link Group</TranslatedText>
        </Description>
        <def:Origin Type="Assigned" Source="Sponsor"/>
      </ItemDef>
      <ItemDef OID="IT.TR.TRLNKID" Name="TRLNKID" DataType="text" Length="20" SASFieldName="TRLNKID">
        <Description>
          <TranslatedText xml:lang="en">Link ID</TranslatedText>
        </Description>
        <def:Origin Type="Collected" Source="Investigator"/>
      </ItemDef>
      <ItemDef OID="IT.TR.TRLOBXFL" Name="TRLOBXFL" DataType="text" Length="1" SASFieldName="TRLOBXFL">
        <Description>
          <TranslatedText xml:lang="en">Last Observation Before Exposure Flag</TranslatedText>
        </Description>
        <CodeListRef CodeListOID="CL.NY"/>
        <def:Origin Type="Collected" Source="Investigator"/>
      </ItemDef>
      <ItemDef OID="IT.TR.TRMETHOD" Name="TRMETHOD" DataType="text" Length="200" SASFieldName="TRMETHOD">
        <Description>
          <TranslatedText xml:lang="en">Method Used to Identify the Tumor/Lesion</TranslatedText>
        </Description>
        <CodeListRef CodeListOID="CL.METHOD"/>
        <def:Origin Type="Collected" Source="Investigator"/>
      </ItemDef>
      <ItemDef OID="IT.TR.TRNAM" Name="TRNAM" DataType="text" Length="200" SASFieldName="TRNAM">
        <Description>
          <TranslatedText xml:lang="en">Laboratory/Vendor Name</TranslatedText>
        </Description>
        <def:Origin Type="Collected" Source="Investigator"/>
      </ItemDef>
      <ItemDef OID="IT.TR.TRORRES" Name="TRORRES" DataType="text" Length="200" SASFieldName="TRORRES">
        <Description>
          <TranslatedText xml:lang="en">Result or Finding in Original Units</TranslatedText>
        </Description>
        <def:ValueListRef ValueListOID="VL.TR.TRORRES"/>
      </ItemDef>
      <ItemDef OID="IT.TR.TRORRESU" Name="TRORRESU" DataType="text" Length="200" SASFieldName="TRORRESU">
        <Description>
          <TranslatedText xml:lang="en">Original Units</TranslatedText>
        </Description>
        <def:ValueListRef ValueListOID="VL.TR.TRORRESU"/>
      </ItemDef>
      <ItemDef OID="IT.TR.TRREASND" Name="TRREASND" DataType="text" Length="200" SASFieldName="TRREASND">
        <Description>
          <TranslatedText xml:lang="en">Reason Not Done</TranslatedText>
        </Description>
        <def:Origin Type="Collected" Source="Investigator"/>
      </ItemDef>
      <ItemDef OID="IT.TR.TRREFID" Name="TRREFID" DataType="text" Length="200" SASFieldName="TRREFID">
        <Description>
          <TranslatedText xml:lang="en">Reference ID</TranslatedText>
        </Description>
        <def:Origin Type="Collected" Source="Investigator"/>
      </ItemDef>
      <ItemDef OID="IT.TR.TRSEQ" Name="TRSEQ" DataType="integer" Length="8" SASFieldName="TRSEQ" def:DisplayFormat="9">
        <Description>
          <TranslatedText xml:lang="en">Sequence Number</TranslatedText>
        </Description>
        <def:Origin Type="Derived" Source="Sponsor"/>
      </ItemDef>
      <ItemDef OID="IT.TR.TRSPID" Name="TRSPID" DataType="text" Length="200" SASFieldName="TRSPID">
        <Description>
          <TranslatedText xml:lang="en">Sponsor-Defined Identifier</TranslatedText>
        </Description>
        <def:Origin Type="Assigned" Source="Sponsor"/>
      </ItemDef>
      <ItemDef OID="IT.TR.TRSTAT" Name="TRSTAT" DataType="text" Length="8" SASFieldName="TRSTAT">
        <Description>
          <TranslatedText xml:lang="en">Completion Status</TranslatedText>
        </Description>
        <CodeListRef CodeListOID="CL.ND"/>
        <def:Origin Type="Collected" Source="Investigator"/>
      </ItemDef>
      <ItemDef OID="IT.TR.TRSTRESC" Name="TRSTRESC" DataType="text" Length="200" SASFieldName="TRSTRESC">
        <Description>
          <TranslatedText xml:lang="en">Character Result/Finding in Std Format</TranslatedText>
        </Description>
        <CodeListRef CodeListOID="CL.TRPROPRS"/>
        <def:ValueListRef ValueListOID="VL.TR.TRSTRESC"/>
      </ItemDef>
      <ItemDef OID="IT.TR.TRSTRESN" Name="TRSTRESN" DataType="float" Length="22" SignificantDigits="7" SASFieldName="TRSTRESN" def:DisplayFormat="24.7">
        <Description>
          <TranslatedText xml:lang="en">Numeric Result/Finding in Standard Units</TranslatedText>
        </Description>
        <def:ValueListRef ValueListOID="VL.TR.TRSTRESN"/>
      </ItemDef>
      <ItemDef OID="IT.TR.TRSTRESU" Name="TRSTRESU" DataType="text" Length="200" SASFieldName="TRSTRESU">
        <Description>
          <TranslatedText xml:lang="en">Standard Units</TranslatedText>
        </Description>
        <def:ValueListRef ValueListOID="VL.TR.TRSTRESU"/>
      </ItemDef>
      <ItemDef OID="IT.TR.TRTEST" Name="TRTEST" DataType="text" Length="40" SASFieldName="TRTEST">
        <Description>
          <TranslatedText xml:lang="en">Tumor/Lesion Assessment Test Name</TranslatedText>
        </Description>
        <CodeListRef CodeListOID="CL.TRTEST"/>
        <def:Origin Type="Collected" Source="Investigator"/>
      </ItemDef>
      <ItemDef OID="IT.TR.TRTESTCD" Name="TRTESTCD" DataType="text" Length="8" SASFieldName="TRTESTCD">
        <Description>
          <TranslatedText xml:lang="en">Tumor/Lesion Assessment Short Name</TranslatedText>
        </Description>
        <CodeListRef CodeListOID="CL.TRTESTCD"/>
        <def:Origin Type="Assigned" Source="Sponsor"/>
      </ItemDef>
      <ItemDef OID="IT.TR.USUBJID" Name="USUBJID" DataType="text" Length="20" SASFieldName="USUBJID">
        <Description>
          <TranslatedText xml:lang="en">Unique Subject Identifier</TranslatedText>
        </Description>
        <def:Origin Type="Derived" Source="Sponsor"/>
      </ItemDef>
      <ItemDef OID="IT.TR.VISIT" Name="VISIT" DataType="text" Length="40" SASFieldName="VISIT">
        <Description>
          <TranslatedText xml:lang="en">Visit Name</TranslatedText>
        </Description>
        <def:Origin Type="Protocol" Source="Sponsor"/>
      </ItemDef>
      <ItemDef OID="IT.TR.VISITDY" Name="VISITDY" DataType="integer" Length="8" SASFieldName="VISITDY">
        <Description>
          <TranslatedText xml:lang="en">Planned Study Day of Visit</TranslatedText>
        </Description>
        <def:Origin Type="Collected" Source="Investigator"/>
      </ItemDef>
      <ItemDef OID="IT.TR.VISITNUM" Name="VISITNUM" DataType="float" Length="6" SignificantDigits="2" SASFieldName="VISITNUM" def:DisplayFormat="8.2">
        <Description>
          <TranslatedText xml:lang="en">Visit Number</TranslatedText>
        </Description>
        <def:Origin Type="Assigned" Source="Sponsor"/>
      </ItemDef>
      <ItemDef OID="IT.TU.DOMAIN" Name="DOMAIN" DataType="text" Length="4" SASFieldName="DOMAIN">
        <Description>
          <TranslatedText xml:lang="en">Domain Abbreviation</TranslatedText>
        </Description>
        <def:Origin Type="Assigned" Source="Sponsor"/>
      </ItemDef>
      <ItemDef OID="IT.TU.EPOCH" Name="EPOCH" DataType="text" Length="200" SASFieldName="EPOCH">
        <Description>
          <TranslatedText xml:lang="en">Epoch</TranslatedText>
        </Description>
        <CodeListRef CodeListOID="CL.EPOCH"/>
        <def:Origin Type="Derived" Source="Sponsor"/>
      </ItemDef>
      <ItemDef OID="IT.TU.PRVIR" Name="PRVIR" DataType="text" Length="1" SASFieldName="PRVIR">
        <Description>
          <TranslatedText xml:lang="en">Previously Irradiated Indicator</TranslatedText>
        </Description>
        <CodeListRef CodeListOID="CL.NY"/>
        <def:Origin Type="Collected" Source="Investigator"/>
      </ItemDef>
      <ItemDef OID="IT.TU.PRVIRP" Name="PRVIRP" DataType="text" Length="1" SASFieldName="PRVIRP">
        <Description>
          <TranslatedText xml:lang="en">Previously Irradiated Progression</TranslatedText>
        </Description>
        <CodeListRef CodeListOID="CL.NY"/>
        <def:Origin Type="Collected" Source="Investigator"/>
      </ItemDef>
      <ItemDef OID="IT.TU.STUDYID" Name="STUDYID" DataType="text" Length="10" SASFieldName="STUDYID">
        <Description>
          <TranslatedText xml:lang="en">Study Identifier</TranslatedText>
        </Description>
        <def:Origin Type="Protocol" Source="Sponsor"/>
      </ItemDef>
      <ItemDef OID="IT.TU.TAETORD" Name="TAETORD" DataType="integer" Length="8" SASFieldName="TAETORD">
        <Description>
          <TranslatedText xml:lang="en">Planned Order of Element within Arm</TranslatedText>
        </Description>
        <def:Origin Type="Assigned" Source="Sponsor"/>
      </ItemDef>
      <ItemDef OID="IT.TU.TUACPTFL" Name="TUACPTFL" DataType="text" Length="1" SASFieldName="TUACPTFL">
        <Description>
          <TranslatedText xml:lang="en">Accepted Record Flag</TranslatedText>
        </Description>
        <CodeListRef CodeListOID="CL.NY"/>
        <def:Origin Type="Collected" Source="Investigator"/>
      </ItemDef>
      <ItemDef OID="IT.TU.TUBLFL" Name="TUBLFL" DataType="text" Length="1" SASFieldName="TUBLFL">
        <Description>
          <TranslatedText xml:lang="en">Baseline Flag</TranslatedText>
        </Description>
        <CodeListRef CodeListOID="CL.NY"/>
        <def:Origin Type="Collected" Source="Investigator"/>
      </ItemDef>
      <ItemDef OID="IT.TU.TUDIR" Name="TUDIR" DataType="text" Length="200" SASFieldName="TUDIR">
        <Description>
          <TranslatedText xml:lang="en">Directionality</TranslatedText>
        </Description>
        <CodeListRef CodeListOID="CL.DIR"/>
        <def:Origin Type="Collected" Source="Investigator"/>
      </ItemDef>
      <ItemDef OID="IT.TU.TUDTC" Name="TUDTC" DataType="datetime" SASFieldName="TUDTC">
        <Description>
          <TranslatedText xml:lang="en">Date/Time of Tumor/Lesion Identification</TranslatedText>
        </Description>
        <def:Origin Type="Collected" Source="Investigator"/>
      </ItemDef>
      <ItemDef OID="IT.TU.TUDY" Name="TUDY" DataType="integer" Length="8" SASFieldName="TUDY">
        <Description>
          <TranslatedText xml:lang="en">Study Day of Tumor/Lesion Identification</TranslatedText>
        </Description>
        <def:Origin Type="Derived" Source="Sponsor"/>
      </ItemDef>
      <ItemDef OID="IT.TU.TUEVAL" Name="TUEVAL" DataType="text" Length="200" SASFieldName="TUEVAL">
        <Description>
          <TranslatedText xml:lang="en">Evaluator</TranslatedText>
        </Description>
        <CodeListRef CodeListOID="CL.EVAL"/>
        <def:Origin Type="Collected" Source="Investigator"/>
      </ItemDef>
      <ItemDef OID="IT.TU.TUEVALID" Name="TUEVALID" DataType="text" Length="200" SASFieldName="TUEVALID">
        <Description>
          <TranslatedText xml:lang="en">Evaluator Identifier</TranslatedText>
        </Description>
        <CodeListRef CodeListOID="CL.MEDEVAL"/>
        <def:Origin Type="Collected" Source="Investigator"/>
      </ItemDef>
      <ItemDef OID="IT.TU.TUGRPID" Name="TUGRPID" DataType="text" Length="200" SASFieldName="TUGRPID">
        <Description>
          <TranslatedText xml:lang="en">Group ID</TranslatedText>
        </Description>
        <def:Origin Type="Assigned" Source="Sponsor"/>
      </ItemDef>
      <ItemDef OID="IT.TU.TULAT" Name="TULAT" DataType="text" Length="200" SASFieldName="TULAT">
        <Description>
          <TranslatedText xml:lang="en">Laterality</TranslatedText>
        </Description>
        <CodeListRef CodeListOID="CL.LAT"/>
        <def:Origin Type="Collected" Source="Investigator"/>
      </ItemDef>
      <ItemDef OID="IT.TU.TULNKGRP" Name="TULNKGRP" DataType="text" Length="200" SASFieldName="TULNKGRP">
        <Description>
          <TranslatedText xml:lang="en">Link Group ID</TranslatedText>
        </Description>
        <def:Origin Type="Assigned" Source="Sponsor"/>
      </ItemDef>
      <ItemDef OID="IT.TU.TULNKID" Name="TULNKID" DataType="text" Length="20" SASFieldName="TULNKID">
        <Description>
          <TranslatedText xml:lang="en">Link ID</TranslatedText>
        </Description>
        <def:Origin Type="Collected" Source="Investigator"/>
      </ItemDef>
      <ItemDef OID="IT.TU.TULOBXFL" Name="TULOBXFL" DataType="text" Length="1" SASFieldName="TULOBXFL">
        <Description>
          <TranslatedText xml:lang="en">Last Observation Before Exposure Flag</TranslatedText>
        </Description>
        <CodeListRef CodeListOID="CL.NY"/>
        <def:Origin Type="Collected" Source="Investigator"/>
      </ItemDef>
      <ItemDef OID="IT.TU.TULOC" Name="TULOC" DataType="text" Length="200" SASFieldName="TULOC">
        <Description>
          <TranslatedText xml:lang="en">Location of the Tumor/Lesion</TranslatedText>
        </Description>
        <CodeListRef CodeListOID="CL.LOC"/>
        <def:Origin Type="Collected" Source="Investigator"/>
      </ItemDef>
      <ItemDef OID="IT.TU.TUMETHOD" Name="TUMETHOD" DataType="text" Length="200" SASFieldName="TUMETHOD">
        <Description>
          <TranslatedText xml:lang="en">Method of Identification</TranslatedText>
        </Description>
        <CodeListRef CodeListOID="CL.METHOD"/>
        <def:Origin Type="Collected" Source="Investigator"/>
      </ItemDef>
      <ItemDef OID="IT.TU.TUNAM" Name="TUNAM" DataType="text" Length="200" SASFieldName="TUNAM">
        <Description>
          <TranslatedText xml:lang="en">Laboratory/Vendor Name</TranslatedText>
        </Description>
        <def:Origin Type="Collected" Source="Investigator"/>
      </ItemDef>
      <ItemDef OID="IT.TU.TUORRES" Name="TUORRES" DataType="text" Length="200" SASFieldName="TUORRES">
        <Description>
          <TranslatedText xml:lang="en">Tumor/Lesion ID Result</TranslatedText>
        </Description>
        <def:ValueListRef ValueListOID="VL.TU.TUORRES"/>
      </ItemDef>
      <ItemDef OID="IT.TU.TUPORTOT" Name="TUPORTOT" DataType="text" Length="200" SASFieldName="TUPORTOT">
        <Description>
          <TranslatedText xml:lang="en">Portion or Totality</TranslatedText>
        </Description>
        <CodeListRef CodeListOID="CL.PORTOT"/>
        <def:Origin Type="Collected" Source="Investigator"/>
      </ItemDef>
      <ItemDef OID="IT.TU.TUREFID" Name="TUREFID" DataType="text" Length="200" SASFieldName="TUREFID">
        <Description>
          <TranslatedText xml:lang="en">Reference ID</TranslatedText>
        </Description>
        <def:Origin Type="Collected" Source="Investigator"/>
      </ItemDef>
      <ItemDef OID="IT.TU.TUSEQ" Name="TUSEQ" DataType="integer" Length="8" SASFieldName="TUSEQ" def:DisplayFormat="9">
        <Description>
          <TranslatedText xml:lang="en">Sequence Number</TranslatedText>
        </Description>
        <def:Origin Type="Derived" Source="Sponsor"/>
      </ItemDef>
      <ItemDef OID="IT.TU.TUSPID" Name="TUSPID" DataType="text" Length="200" SASFieldName="TUSPID">
        <Description>
          <TranslatedText xml:lang="en">Sponsor-Defined Identifier</TranslatedText>
        </Description>
        <def:Origin Type="Assigned" Source="Sponsor"/>
      </ItemDef>
      <ItemDef OID="IT.TU.TUSTRESC" Name="TUSTRESC" DataType="text" Length="200" SASFieldName="TUSTRESC">
        <Description>
          <TranslatedText xml:lang="en">Tumor/Lesion ID Result Std. Format</TranslatedText>
        </Description>
        <CodeListRef CodeListOID="CL.TUIDRS"/>
        <def:ValueListRef ValueListOID="VL.TU.TUSTRESC"/>
      </ItemDef>
      <ItemDef OID="IT.TU.TUTEST" Name="TUTEST" DataType="text" Length="40" SASFieldName="TUTEST">
        <Description>
          <TranslatedText xml:lang="en">Tumor/Lesion ID Test Name</TranslatedText>
        </Description>
        <CodeListRef CodeListOID="CL.TUTEST"/>
        <def:Origin Type="Collected" Source="Investigator"/>
      </ItemDef>
      <ItemDef OID="IT.TU.TUTESTCD" Name="TUTESTCD" DataType="text" Length="8" SASFieldName="TUTESTCD">
        <Description>
          <TranslatedText xml:lang="en">Tumor/Lesion ID Short Name</TranslatedText>
        </Description>
        <CodeListRef CodeListOID="CL.TUTESTCD"/>
        <def:Origin Type="Assigned" Source="Sponsor"/>
      </ItemDef>
      <ItemDef OID="IT.TU.USUBJID" Name="USUBJID" DataType="text" Length="20" SASFieldName="USUBJID">
        <Description>
          <TranslatedText xml:lang="en">Unique Subject Identifier</TranslatedText>
        </Description>
        <def:Origin Type="Derived" Source="Sponsor"/>
      </ItemDef>
      <ItemDef OID="IT.TU.VISIT" Name="VISIT" DataType="text" Length="40" SASFieldName="VISIT">
        <Description>
          <TranslatedText xml:lang="en">Visit Name</TranslatedText>
        </Description>
        <def:Origin Type="Protocol" Source="Sponsor"/>
      </ItemDef>
      <ItemDef OID="IT.TU.VISITDY" Name="VISITDY" DataType="integer" Length="8" SASFieldName="VISITDY">
        <Description>
          <TranslatedText xml:lang="en">Planned Study Day of Visit</TranslatedText>
        </Description>
        <def:Origin Type="Collected" Source="Investigator"/>
      </ItemDef>
      <ItemDef OID="IT.TU.VISITNUM" Name="VISITNUM" DataType="float" Length="6" SignificantDigits="2" SASFieldName="VISITNUM" def:DisplayFormat="8.2">
        <Description>
          <TranslatedText xml:lang="en">Visit Number</TranslatedText>
        </Description>
        <def:Origin Type="Assigned" Source="Sponsor"/>
      </ItemDef>
      <ItemDef OID="IT.RS.RSORRES.WC.RS.RSORRES.00001" Name="RSORRES" DataType="text" SASFieldName="RSORRES">
        <Description>
          <TranslatedText xml:lang="en">New Lesion Progression</TranslatedText>
        </Description>
        <CodeListRef CodeListOID="CL.ONCRSR_OR_NEWLPROG"/>
        <def:Origin Type="Collected" Source="Investigator"/>
      </ItemDef>
      <ItemDef OID="IT.RS.RSORRES.WC.RS.RSORRES.00002" Name="RSORRES" DataType="text" SASFieldName="RSORRES">
        <Description>
          <TranslatedText xml:lang="en">Non-Target Response</TranslatedText>
        </Description>
        <CodeListRef CodeListOID="CL.ONCRSR_OR_NTRGRESP"/>
        <def:Origin Type="Collected" Source="Investigator"/>
      </ItemDef>
      <ItemDef OID="IT.RS.RSORRES.WC.RS.RSORRES.00003" Name="RSORRES" DataType="text" SASFieldName="RSORRES">
        <Description>
          <TranslatedText xml:lang="en">Overall Response</TranslatedText>
        </Description>
        <CodeListRef CodeListOID="CL.ONCRSR_OR_OVRLRESP"/>
        <def:Origin Type="Collected" Source="Investigator"/>
      </ItemDef>
      <ItemDef OID="IT.RS.RSORRES.WC.RS.RSORRES.00004" Name="RSORRES" DataType="text" SASFieldName="RSORRES">
        <Description>
          <TranslatedText xml:lang="en">Target Response</TranslatedText>
        </Description>
        <CodeListRef CodeListOID="CL.ONCRSR_OR_TRGRESP"/>
        <def:Origin Type="Collected" Source="Investigator"/>
      </ItemDef>
      <ItemDef OID="IT.RS.RSSTRESC.WC.RS.RSSTRESC.00005" Name="RSSTRESC" DataType="text" SASFieldName="RSSTRESC">
        <Description>
          <TranslatedText xml:lang="en">New Lesion Progression</TranslatedText>
        </Description>
        <CodeListRef CodeListOID="CL.ONCRSR_STC_NEWLPROG"/>
        <def:Origin Type="Derived" Source="Sponsor"/>
      </ItemDef>
      <ItemDef OID="IT.RS.RSSTRESC.WC.RS.RSSTRESC.00006" Name="RSSTRESC" DataType="text" SASFieldName="RSSTRESC">
        <Description>
          <TranslatedText xml:lang="en">Non-Target Response</TranslatedText>
        </Description>
        <CodeListRef CodeListOID="CL.ONCRSR_STC_NTRGRESP"/>
        <def:Origin Type="Derived" Source="Sponsor"/>
      </ItemDef>
      <ItemDef OID="IT.RS.RSSTRESC.WC.RS.RSSTRESC.00007" Name="RSSTRESC" DataType="text" SASFieldName="RSSTRESC">
        <Description>
          <TranslatedText xml:lang="en">Overall Response</TranslatedText>
        </Description>
        <CodeListRef CodeListOID="CL.ONCRSR_STC_OVRLRESP"/>
        <def:Origin Type="Derived" Source="Sponsor"/>
      </ItemDef>
      <ItemDef OID="IT.RS.RSSTRESC.WC.RS.RSSTRESC.00008" Name="RSSTRESC" DataType="text" SASFieldName="RSSTRESC">
        <Description>
          <TranslatedText xml:lang="en">Target Response</TranslatedText>
        </Description>
        <CodeListRef CodeListOID="CL.ONCRSR_STC_TRGRESP"/>
        <def:Origin Type="Derived" Source="Sponsor"/>
      </ItemDef>
      <ItemDef OID="IT.TR.TRORRES.WC.TR.TRORRES.00009" Name="TRORRES" DataType="text" SASFieldName="TRORRES">
        <Description>
          <TranslatedText xml:lang="en">Longest Diameter</TranslatedText>
        </Description>
        <def:Origin Type="Collected" Source="Investigator"/>
      </ItemDef>
      <ItemDef OID="IT.TR.TRORRES.WC.TR.TRORRES.00010" Name="TRORRES" DataType="text" SASFieldName="TRORRES">
        <Description>
          <TranslatedText xml:lang="en">Lymph Node State</TranslatedText>
        </Description>
        <CodeListRef CodeListOID="CL.TRPROPRS_OR_LNSTATE"/>
        <def:Origin Type="Collected" Source="Investigator"/>
      </ItemDef>
      <ItemDef OID="IT.TR.TRORRES.WC.TR.TRORRES.00011" Name="TRORRES" DataType="text" SASFieldName="TRORRES">
        <Description>
          <TranslatedText xml:lang="en">Longest Perpendicular</TranslatedText>
        </Description>
        <def:Origin Type="Collected" Source="Investigator"/>
      </ItemDef>
      <ItemDef OID="IT.TR.TRORRES.WC.TR.TRORRES.00012" Name="TRORRES" DataType="text" SASFieldName="TRORRES">
        <Description>
          <TranslatedText xml:lang="en">Tumor Status</TranslatedText>
        </Description>
        <CodeListRef CodeListOID="CL.TRPROPRS_OR_TUMSTATE"/>
        <def:Origin Type="Collected" Source="Investigator"/>
      </ItemDef>
      <ItemDef OID="IT.TR.TRORRESU.WC.TR.TRORRESU.00013" Name="TRORRESU" DataType="text" SASFieldName="TRORRESU">
        <Description>
          <TranslatedText xml:lang="en">Longest Diameter</TranslatedText>
        </Description>
        <CodeListRef CodeListOID="CL.UNIT_ORU_LDIAM"/>
        <def:Origin Type="Assigned" Source="Sponsor"/>
      </ItemDef>
      <ItemDef OID="IT.TR.TRORRESU.WC.TR.TRORRESU.00014" Name="TRORRESU" DataType="text" SASFieldName="TRORRESU">
        <Description>
          <TranslatedText xml:lang="en">Longest Perpendicular</TranslatedText>
        </Description>
        <CodeListRef CodeListOID="CL.UNIT_ORU_LPERP"/>
        <def:Origin Type="Assigned" Source="Sponsor"/>
      </ItemDef>
      <ItemDef OID="IT.TR.TRSTRESC.WC.TR.TRSTRESC.00015" Name="TRSTRESC" DataType="text" SASFieldName="TRSTRESC">
        <Description>
          <TranslatedText xml:lang="en">Longest Diameter</TranslatedText>
        </Description>
        <def:Origin Type="Derived" Source="Sponsor"/>
      </ItemDef>
      <ItemDef OID="IT.TR.TRSTRESC.WC.TR.TRSTRESC.00016" Name="TRSTRESC" DataType="text" SASFieldName="TRSTRESC">
        <Description>
          <TranslatedText xml:lang="en">Lymph Node State</TranslatedText>
        </Description>
        <CodeListRef CodeListOID="CL.TRPROPRS_STC_LNSTATE"/>
        <def:Origin Type="Derived" Source="Sponsor"/>
      </ItemDef>
      <ItemDef OID="IT.TR.TRSTRESC.WC.TR.TRSTRESC.00017" Name="TRSTRESC" DataType="text" SASFieldName="TRSTRESC">
        <Description>
          <TranslatedText xml:lang="en">Longest Perpendicular</TranslatedText>
        </Description>
        <def:Origin Type="Derived" Source="Sponsor"/>
      </ItemDef>
      <ItemDef OID="IT.TR.TRSTRESC.WC.TR.TRSTRESC.00018" Name="TRSTRESC" DataType="text" SASFieldName="TRSTRESC">
        <Description>
          <TranslatedText xml:lang="en">Tumor Status</TranslatedText>
        </Description>
        <CodeListRef CodeListOID="CL.TRPROPRS_STC_TUMSTATE"/>
        <def:Origin Type="Derived" Source="Sponsor"/>
      </ItemDef>
      <ItemDef OID="IT.TR.TRSTRESN.WC.TR.TRSTRESN.00019" Name="TRSTRESN" DataType="integer" SASFieldName="TRSTRESN">
        <Description>
          <TranslatedText xml:lang="en">Longest Diameter</TranslatedText>
        </Description>
        <def:Origin Type="Derived" Source="Sponsor"/>
      </ItemDef>
      <ItemDef OID="IT.TR.TRSTRESN.WC.TR.TRSTRESN.00020" Name="TRSTRESN" DataType="integer" SASFieldName="TRSTRESN">
        <Description>
          <TranslatedText xml:lang="en">Longest Perpendicular</TranslatedText>
        </Description>
        <def:Origin Type="Derived" Source="Sponsor"/>
      </ItemDef>
      <ItemDef OID="IT.TR.TRSTRESU.WC.TR.TRSTRESU.00021" Name="TRSTRESU" DataType="text" SASFieldName="TRSTRESU">
        <Description>
          <TranslatedText xml:lang="en">Longest Diameter</TranslatedText>
        </Description>
        <CodeListRef CodeListOID="CL.UNIT_STU_LDIAM"/>
        <def:Origin Type="Derived" Source="Sponsor"/>
      </ItemDef>
      <ItemDef OID="IT.TR.TRSTRESU.WC.TR.TRSTRESU.00022" Name="TRSTRESU" DataType="text" SASFieldName="TRSTRESU">
        <Description>
          <TranslatedText xml:lang="en">Longest Perpendicular</TranslatedText>
        </Description>
        <CodeListRef CodeListOID="CL.UNIT_STU_LPERP"/>
        <def:Origin Type="Derived" Source="Sponsor"/>
      </ItemDef>
      <ItemDef OID="IT.TU.TUORRES.WC.TU.TUORRES.00023" Name="TUORRES" DataType="text" Length="24" SASFieldName="TUORRES">
        <Description>
          <TranslatedText xml:lang="en">Non-Target Indicator</TranslatedText>
        </Description>
        <CodeListRef CodeListOID="CL.NY_OR_NTIND"/>
        <def:Origin Type="Collected" Source="Investigator"/>
      </ItemDef>
      <ItemDef OID="IT.TU.TUORRES.WC.TU.TUORRES.00024" Name="TUORRES" DataType="text" Length="24" SASFieldName="TUORRES">
        <Description>
          <TranslatedText xml:lang="en">Target Indicator</TranslatedText>
        </Description>
        <CodeListRef CodeListOID="CL.NY_OR_TIND"/>
        <def:Origin Type="Collected" Source="Investigator"/>
      </ItemDef>
      <ItemDef OID="IT.TU.TUORRES.WC.TU.TUORRES.00025" Name="TUORRES" DataType="text" Length="24" SASFieldName="TUORRES">
        <Description>
          <TranslatedText xml:lang="en">Tumor Merged</TranslatedText>
        </Description>
        <CodeListRef CodeListOID="CL.TUIDRS_OR_TUMERGE"/>
        <def:Origin Type="Assigned" Source="Sponsor"/>
      </ItemDef>
      <ItemDef OID="IT.TU.TUORRES.WC.TU.TUORRES.00026" Name="TUORRES" DataType="text" Length="24" SASFieldName="TUORRES">
        <Description>
          <TranslatedText xml:lang="en">Tumor Split</TranslatedText>
        </Description>
        <CodeListRef CodeListOID="CL.TUIDRS_OR_TUSPLIT"/>
        <def:Origin Type="Assigned" Source="Sponsor"/>
      </ItemDef>
      <ItemDef OID="IT.TU.TUORRES.WC.TU.TUORRES.00027" Name="TUORRES" DataType="text" Length="24" SASFieldName="TUORRES">
        <Description>
          <TranslatedText xml:lang="en">Tumor Identification</TranslatedText>
        </Description>
        <CodeListRef CodeListOID="CL.TUIDRS_OR_TUMIDENT"/>
        <def:Origin Type="Collected" Source="Investigator"/>
      </ItemDef>
      <ItemDef OID="IT.TU.TUSTRESC.WC.TU.TUSTRESC.00028" Name="TUSTRESC" DataType="text" Length="24" SASFieldName="TUSTRESC">
        <Description>
          <TranslatedText xml:lang="en">Non-Target Indicator</TranslatedText>
        </Description>
        <CodeListRef CodeListOID="CL.NY_STC_NTIND"/>
        <def:Origin Type="Derived" Source="Sponsor"/>
      </ItemDef>
      <ItemDef OID="IT.TU.TUSTRESC.WC.TU.TUSTRESC.00029" Name="TUSTRESC" DataType="text" Length="24" SASFieldName="TUSTRESC">
        <Description>
          <TranslatedText xml:lang="en">Target Indicator</TranslatedText>
        </Description>
        <CodeListRef CodeListOID="CL.NY_STC_TIND"/>
        <def:Origin Type="Derived" Source="Sponsor"/>
      </ItemDef>
      <ItemDef OID="IT.TU.TUSTRESC.WC.TU.TUSTRESC.00030" Name="TUSTRESC" DataType="text" Length="24" SASFieldName="TUSTRESC">
        <Description>
          <TranslatedText xml:lang="en">Tumor Merged</TranslatedText>
        </Description>
        <CodeListRef CodeListOID="CL.TUIDRS_STC_TUMERGE"/>
        <def:Origin Type="Derived" Source="Sponsor"/>
      </ItemDef>
      <ItemDef OID="IT.TU.TUSTRESC.WC.TU.TUSTRESC.00031" Name="TUSTRESC" DataType="text" Length="24" SASFieldName="TUSTRESC">
        <Description>
          <TranslatedText xml:lang="en">Tumor Split</TranslatedText>
        </Description>
        <CodeListRef CodeListOID="CL.TUIDRS_STC_TUSPLIT"/>
        <def:Origin Type="Derived" Source="Sponsor"/>
      </ItemDef>
      <ItemDef OID="IT.TU.TUSTRESC.WC.TU.TUSTRESC.00032" Name="TUSTRESC" DataType="text" Length="24" SASFieldName="TUSTRESC">
        <Description>
          <TranslatedText xml:lang="en">Tumor Identification</TranslatedText>
        </Description>
        <CodeListRef CodeListOID="CL.TUIDRS_STC_TUMIDENT"/>
        <def:Origin Type="Derived" Source="Sponsor"/>
      </ItemDef>
      <CodeList OID="CL.DIR" Name="Directionality" DataType="text" def:StandardOID="STD.2">
        <EnumeratedItem CodedValue="ACRAL">
          <Alias Context="nci:ExtCodeID" Name="C199841"/>
        </EnumeratedItem>
        <EnumeratedItem CodedValue="ANTERIOR">
          <Alias Context="nci:ExtCodeID" Name="C25231"/>
        </EnumeratedItem>
        <EnumeratedItem CodedValue="ANTEROLATERAL">
          <Alias Context="nci:ExtCodeID" Name="C25422"/>
        </EnumeratedItem>
        <EnumeratedItem CodedValue="ANTEROMEDIAL">
          <Alias Context="nci:ExtCodeID" Name="C147159"/>
        </EnumeratedItem>
        <EnumeratedItem CodedValue="ANTEROPOSTERIOR">
          <Alias Context="nci:ExtCodeID" Name="C85512"/>
        </EnumeratedItem>
        <EnumeratedItem CodedValue="ANTEROTEMPORAL">
          <Alias Context="nci:ExtCodeID" Name="C165868"/>
        </EnumeratedItem>
        <EnumeratedItem CodedValue="APICAL">
          <Alias Context="nci:ExtCodeID" Name="C25423"/>
        </EnumeratedItem>
        <EnumeratedItem CodedValue="BASAL">
          <Alias Context="nci:ExtCodeID" Name="C90067"/>
        </EnumeratedItem>
        <EnumeratedItem CodedValue="CAUDAL">
          <Alias Context="nci:ExtCodeID" Name="C73851"/>
        </EnumeratedItem>
        <EnumeratedItem CodedValue="CENTRAL">
          <Alias Context="nci:ExtCodeID" Name="C25445"/>
        </EnumeratedItem>
        <EnumeratedItem CodedValue="CRANIAL">
          <Alias Context="nci:ExtCodeID" Name="C37936"/>
        </EnumeratedItem>
        <EnumeratedItem CodedValue="CRANIOCAUDAL">
          <Alias Context="nci:ExtCodeID" Name="C186020"/>
        </EnumeratedItem>
        <EnumeratedItem CodedValue="DEEP">
          <Alias Context="nci:ExtCodeID" Name="C25240"/>
        </EnumeratedItem>
        <EnumeratedItem CodedValue="DISTAL">
          <Alias Context="nci:ExtCodeID" Name="C25237"/>
        </EnumeratedItem>
        <EnumeratedItem CodedValue="DISTAL VOLAR">
          <Alias Context="nci:ExtCodeID" Name="C147160"/>
        </EnumeratedItem>
        <EnumeratedItem CodedValue="DORSAL">
          <Alias Context="nci:ExtCodeID" Name="C45874"/>
        </EnumeratedItem>
        <EnumeratedItem CodedValue="DORSOLATERAL">
          <Alias Context="nci:ExtCodeID" Name="C90376"/>
        </EnumeratedItem>
        <EnumeratedItem CodedValue="FACIAL">
          <Alias Context="nci:ExtCodeID" Name="C161327"/>
        </EnumeratedItem>
        <EnumeratedItem CodedValue="FORE">
          <Alias Context="nci:ExtCodeID" Name="C90386"/>
        </EnumeratedItem>
        <EnumeratedItem CodedValue="FRONTAL">
          <Alias Context="nci:ExtCodeID" Name="C161325"/>
        </EnumeratedItem>
        <EnumeratedItem CodedValue="HIND">
          <Alias Context="nci:ExtCodeID" Name="C90393"/>
        </EnumeratedItem>
        <EnumeratedItem CodedValue="INFERIOR">
          <Alias Context="nci:ExtCodeID" Name="C25353"/>
        </EnumeratedItem>
        <EnumeratedItem CodedValue="INNER">
          <Alias Context="nci:ExtCodeID" Name="C37980"/>
        </EnumeratedItem>
        <EnumeratedItem CodedValue="INTERMEDIATE">
          <Alias Context="nci:ExtCodeID" Name="C73705"/>
        </EnumeratedItem>
        <EnumeratedItem CodedValue="LATERAL">
          <Alias Context="nci:ExtCodeID" Name="C25230"/>
        </EnumeratedItem>
        <EnumeratedItem CodedValue="LOWER">
          <Alias Context="nci:ExtCodeID" Name="C25309"/>
        </EnumeratedItem>
        <EnumeratedItem CodedValue="LOWER EXTENSOR SURFACE">
          <Alias Context="nci:ExtCodeID" Name="C147161"/>
        </EnumeratedItem>
        <EnumeratedItem CodedValue="LOWER FLEXOR SURFACE">
          <Alias Context="nci:ExtCodeID" Name="C147162"/>
        </EnumeratedItem>
        <EnumeratedItem CodedValue="LOWER MEDIAL">
          <Alias Context="nci:ExtCodeID" Name="C147163"/>
        </EnumeratedItem>
        <EnumeratedItem CodedValue="MEDIAL">
          <Alias Context="nci:ExtCodeID" Name="C25232"/>
        </EnumeratedItem>
        <EnumeratedItem CodedValue="MIDLINE">
          <Alias Context="nci:ExtCodeID" Name="C81170"/>
        </EnumeratedItem>
        <EnumeratedItem CodedValue="NASAL">
          <Alias Context="nci:ExtCodeID" Name="C27958"/>
        </EnumeratedItem>
        <EnumeratedItem CodedValue="OCCIPITAL">
          <Alias Context="nci:ExtCodeID" Name="C161326"/>
        </EnumeratedItem>
        <EnumeratedItem CodedValue="OUTER">
          <Alias Context="nci:ExtCodeID" Name="C38166"/>
        </EnumeratedItem>
        <EnumeratedItem CodedValue="PARIETO-OCCIPITAL">
          <Alias Context="nci:ExtCodeID" Name="C170564"/>
        </EnumeratedItem>
        <EnumeratedItem CodedValue="PERIPHERAL">
          <Alias Context="nci:ExtCodeID" Name="C25233"/>
        </EnumeratedItem>
        <EnumeratedItem CodedValue="PERIVENTRICULAR">
          <Alias Context="nci:ExtCodeID" Name="C165869"/>
        </EnumeratedItem>
        <EnumeratedItem CodedValue="POSTERIOR">
          <Alias Context="nci:ExtCodeID" Name="C25622"/>
        </EnumeratedItem>
        <EnumeratedItem CodedValue="PROXIMAL">
          <Alias Context="nci:ExtCodeID" Name="C25236"/>
        </EnumeratedItem>
        <EnumeratedItem CodedValue="PROXIMAL VOLAR">
          <Alias Context="nci:ExtCodeID" Name="C147164"/>
        </EnumeratedItem>
        <EnumeratedItem CodedValue="ROSTRAL">
          <Alias Context="nci:ExtCodeID" Name="C94393"/>
        </EnumeratedItem>
        <EnumeratedItem CodedValue="SEPTAL">
          <Alias Context="nci:ExtCodeID" Name="C186021"/>
        </EnumeratedItem>
        <EnumeratedItem CodedValue="SUBCORTICAL">
          <Alias Context="nci:ExtCodeID" Name="C165870"/>
        </EnumeratedItem>
        <EnumeratedItem CodedValue="SUPERFICIAL">
          <Alias Context="nci:ExtCodeID" Name="C25239"/>
        </EnumeratedItem>
        <EnumeratedItem CodedValue="SUPERIOR">
          <Alias Context="nci:ExtCodeID" Name="C25235"/>
        </EnumeratedItem>
        <EnumeratedItem CodedValue="SURFACE">
          <Alias Context="nci:ExtCodeID" Name="C25245"/>
        </EnumeratedItem>
        <EnumeratedItem CodedValue="TEMPORAL">
          <Alias Context="nci:ExtCodeID" Name="C117754"/>
        </EnumeratedItem>
        <EnumeratedItem CodedValue="TIP">
          <Alias Context="nci:ExtCodeID" Name="C90069"/>
        </EnumeratedItem>
        <EnumeratedItem CodedValue="UPPER">
          <Alias Context="nci:ExtCodeID" Name="C25355"/>
        </EnumeratedItem>
        <EnumeratedItem CodedValue="UPPER EXTENSOR SURFACE">
          <Alias Context="nci:ExtCodeID" Name="C147165"/>
        </EnumeratedItem>
        <EnumeratedItem CodedValue="UPPER FLEXOR SURFACE">
          <Alias Context="nci:ExtCodeID" Name="C147166"/>
        </EnumeratedItem>
        <EnumeratedItem CodedValue="VENTRAL">
          <Alias Context="nci:ExtCodeID" Name="C45875"/>
        </EnumeratedItem>
        <EnumeratedItem CodedValue="VENTROLATERAL">
          <Alias Context="nci:ExtCodeID" Name="C98798"/>
        </EnumeratedItem>
        <EnumeratedItem CodedValue="VOLAR">
          <Alias Context="nci:ExtCodeID" Name="C147167"/>
        </EnumeratedItem>
        <Alias Context="nci:ExtCodeID" Name="C99074"/>
      </CodeList>
      <CodeList OID="CL.EPOCH" Name="Epoch, subset" DataType="text" def:StandardOID="STD.2">
        <EnumeratedItem CodedValue="SCREENING">
          <Alias Context="nci:ExtCodeID" Name="C48262"/>
        </EnumeratedItem>
        <EnumeratedItem CodedValue="TREATMENT">
          <Alias Context="nci:ExtCodeID" Name="C101526"/>
        </EnumeratedItem>
        <Alias Context="nci:ExtCodeID" Name="C99079"/>
      </CodeList>
      <CodeList OID="CL.EVAL" Name="Evaluator, subset" DataType="text" def:StandardOID="STD.2">
        <EnumeratedItem CodedValue="ADJUDICATOR">
          <Alias Context="nci:ExtCodeID" Name="C96561"/>
        </EnumeratedItem>
        <EnumeratedItem CodedValue="INDEPENDENT ASSESSOR">
          <Alias Context="nci:ExtCodeID" Name="C78720"/>
        </EnumeratedItem>
        <EnumeratedItem CodedValue="INVESTIGATOR">
          <Alias Context="nci:ExtCodeID" Name="C25936"/>
        </EnumeratedItem>
        <Alias Context="nci:ExtCodeID" Name="C78735"/>
      </CodeList>
      <CodeList OID="CL.LAT" Name="Laterality" DataType="text" def:StandardOID="STD.2">
        <EnumeratedItem CodedValue="BILATERAL">
          <Alias Context="nci:ExtCodeID" Name="C13332"/>
        </EnumeratedItem>
        <EnumeratedItem CodedValue="CONTRALATERAL">
          <Alias Context="nci:ExtCodeID" Name="C25307"/>
        </EnumeratedItem>
        <EnumeratedItem CodedValue="IPSILATERAL">
          <Alias Context="nci:ExtCodeID" Name="C25308"/>
        </EnumeratedItem>
        <EnumeratedItem CodedValue="LATERAL">
          <Alias Context="nci:ExtCodeID" Name="C25230"/>
        </EnumeratedItem>
        <EnumeratedItem CodedValue="LEFT">
          <Alias Context="nci:ExtCodeID" Name="C25229"/>
        </EnumeratedItem>
        <EnumeratedItem CodedValue="RIGHT">
          <Alias Context="nci:ExtCodeID" Name="C25228"/>
        </EnumeratedItem>
        <EnumeratedItem CodedValue="UNILATERAL">
          <Alias Context="nci:ExtCodeID" Name="C28012"/>
        </EnumeratedItem>
        <Alias Context="nci:ExtCodeID" Name="C99073"/>
      </CodeList>
      <CodeList OID="CL.LOC" Name="Anatomical Location" DataType="text" def:StandardOID="STD.2">
        <EnumeratedItem CodedValue="5TH LUMBAR SPINOUS PROCESS">
          <Alias Context="nci:ExtCodeID" Name="C116163"/>
        </EnumeratedItem>
        <EnumeratedItem CodedValue="ABDOMINAL AORTA">
          <Alias Context="nci:ExtCodeID" Name="C32038"/>
        </EnumeratedItem>
        <EnumeratedItem CodedValue="ABDOMINAL CAVITY">
          <Alias Context="nci:ExtCodeID" Name="C12664"/>
        </EnumeratedItem>
        <EnumeratedItem CodedValue="ABDOMINAL LYMPH NODE">
          <Alias Context="nci:ExtCodeID" Name="C12360"/>
        </EnumeratedItem>
        <EnumeratedItem CodedValue="ABDOMINAL QUADRANT, LEFT LOWER">
          <Alias Context="nci:ExtCodeID" Name="C151399"/>
        </EnumeratedItem>
        <EnumeratedItem CodedValue="ABDOMINAL QUADRANT, LEFT UPPER">
          <Alias Context="nci:ExtCodeID" Name="C151397"/>
        </EnumeratedItem>
        <EnumeratedItem CodedValue="ABDOMINAL QUADRANT, RIGHT LOWER">
          <Alias Context="nci:ExtCodeID" Name="C151400"/>
        </EnumeratedItem>
        <EnumeratedItem CodedValue="ABDOMINAL QUADRANT, RIGHT UPPER">
          <Alias Context="nci:ExtCodeID" Name="C151398"/>
        </EnumeratedItem>
        <EnumeratedItem CodedValue="ABDOMINAL REGION">
          <Alias Context="nci:ExtCodeID" Name="C139186"/>
        </EnumeratedItem>
        <EnumeratedItem CodedValue="ABDOMINAL SKIN">
          <Alias Context="nci:ExtCodeID" Name="C52758"/>
        </EnumeratedItem>
        <EnumeratedItem CodedValue="ABDOMINAL WALL">
          <Alias Context="nci:ExtCodeID" Name="C77608"/>
        </EnumeratedItem>
        <EnumeratedItem CodedValue="ABDUCENS NERVE">
          <Alias Context="nci:ExtCodeID" Name="C12665"/>
        </EnumeratedItem>
        <EnumeratedItem CodedValue="ABDUCTOR DIGITI MINIMI MUSCLE OF THE HAND">
          <Alias Context="nci:ExtCodeID" Name="C165996"/>
        </EnumeratedItem>
        <EnumeratedItem CodedValue="ABDUCTOR DIGITI QUINTI MUSCLE">
          <Alias Context="nci:ExtCodeID" Name="C163504"/>
        </EnumeratedItem>
        <EnumeratedItem CodedValue="ABDUCTOR HALLUCIS MUSCLE">
          <Alias Context="nci:ExtCodeID" Name="C163505"/>
        </EnumeratedItem>
        <EnumeratedItem CodedValue="ABDUCTOR POLLICIS BREVIS MUSCLE">
          <Alias Context="nci:ExtCodeID" Name="C165997"/>
        </EnumeratedItem>
        <EnumeratedItem CodedValue="ABDUCTOR POLLICIS LONGUS MUSCLE">
          <Alias Context="nci:ExtCodeID" Name="C52888"/>
        </EnumeratedItem>
        <EnumeratedItem CodedValue="ACCESSORY RENAL ARTERY">
          <Alias Context="nci:ExtCodeID" Name="C116183"/>
        </EnumeratedItem>
        <EnumeratedItem CodedValue="ACETABULUM">
          <Alias Context="nci:ExtCodeID" Name="C32042"/>
        </EnumeratedItem>
        <EnumeratedItem CodedValue="ACHILLES TENDON">
          <Alias Context="nci:ExtCodeID" Name="C32043"/>
        </EnumeratedItem>
        <EnumeratedItem CodedValue="ACROMIOCLAVICULAR JOINT">
          <Alias Context="nci:ExtCodeID" Name="C32047"/>
        </EnumeratedItem>
        <EnumeratedItem CodedValue="ACROMION">
          <Alias Context="nci:ExtCodeID" Name="C32048"/>
        </EnumeratedItem>
        <EnumeratedItem CodedValue="ACUTE MARGINAL ARTERY">
          <Alias Context="nci:ExtCodeID" Name="C102285"/>
        </EnumeratedItem>
        <EnumeratedItem CodedValue="ADDUCTOR BREVIS MUSCLE">
          <Alias Context="nci:ExtCodeID" Name="C163506"/>
        </EnumeratedItem>
        <EnumeratedItem CodedValue="ADDUCTOR HALLUCIS MUSCLE, OBLIQUE HEAD">
          <Alias Context="nci:ExtCodeID" Name="C163507"/>
        </EnumeratedItem>
        <EnumeratedItem CodedValue="ADDUCTOR HALLUCIS MUSCLE, TRANSVERSE HEAD">
          <Alias Context="nci:ExtCodeID" Name="C163508"/>
        </EnumeratedItem>
        <EnumeratedItem CodedValue="ADDUCTOR LONGUS MUSCLE">
          <Alias Context="nci:ExtCodeID" Name="C163509"/>
        </EnumeratedItem>
        <EnumeratedItem CodedValue="ADDUCTOR MAGNUS MUSCLE">
          <Alias Context="nci:ExtCodeID" Name="C163510"/>
        </EnumeratedItem>
        <EnumeratedItem CodedValue="ADDUCTOR POLLICIS MUSCLE">
          <Alias Context="nci:ExtCodeID" Name="C186100"/>
        </EnumeratedItem>
        <EnumeratedItem CodedValue="ADRENAL GLAND">
          <Alias Context="nci:ExtCodeID" Name="C12666"/>
        </EnumeratedItem>
        <EnumeratedItem CodedValue="ALISPHENOID PROCESS">
          <Alias Context="nci:ExtCodeID" Name="C129430"/>
        </EnumeratedItem>
        <EnumeratedItem CodedValue="ALVEOLAR PROCESS">
          <Alias Context="nci:ExtCodeID" Name="C89749"/>
        </EnumeratedItem>
        <EnumeratedItem CodedValue="ALVEOLUS">
          <Alias Context="nci:ExtCodeID" Name="C12986"/>
        </EnumeratedItem>
        <EnumeratedItem CodedValue="AMNIOTIC FLUID">
          <Alias Context="nci:ExtCodeID" Name="C13188"/>
        </EnumeratedItem>
        <EnumeratedItem CodedValue="AMPULLA OF VATER">
          <Alias Context="nci:ExtCodeID" Name="C13011"/>
        </EnumeratedItem>
        <EnumeratedItem CodedValue="AMYGDALA">
          <Alias Context="nci:ExtCodeID" Name="C12440"/>
        </EnumeratedItem>
        <EnumeratedItem CodedValue="ANAL CANAL">
          <Alias Context="nci:ExtCodeID" Name="C12375"/>
        </EnumeratedItem>
        <EnumeratedItem CodedValue="ANAL REGION">
          <Alias Context="nci:ExtCodeID" Name="C32069"/>
        </EnumeratedItem>
        <EnumeratedItem CodedValue="ANAL SPHINCTER">
          <Alias Context="nci:ExtCodeID" Name="C165177"/>
        </EnumeratedItem>
        <EnumeratedItem CodedValue="ANAL VERGE">
          <Alias Context="nci:ExtCodeID" Name="C25419"/>
        </EnumeratedItem>
        <EnumeratedItem CodedValue="ANASTOMOSIS">
          <Alias Context="nci:ExtCodeID" Name="C15609"/>
        </EnumeratedItem>
        <EnumeratedItem CodedValue="ANCONEUS MUSCLE">
          <Alias Context="nci:ExtCodeID" Name="C186101"/>
        </EnumeratedItem>
        <EnumeratedItem CodedValue="ANGULAR GYRUS">
          <Alias Context="nci:ExtCodeID" Name="C32077"/>
        </EnumeratedItem>
        <EnumeratedItem CodedValue="ANKLE JOINT">
          <Alias Context="nci:ExtCodeID" Name="C32078"/>
        </EnumeratedItem>
        <EnumeratedItem CodedValue="ANKLE JOINT ANTERIOR EXTENSOR TENDONS">
          <Alias Context="nci:ExtCodeID" Name="C161390"/>
        </EnumeratedItem>
        <EnumeratedItem CodedValue="ANKLE JOINT ANTERIOR FLEXOR TENDONS">
          <Alias Context="nci:ExtCodeID" Name="C161389"/>
        </EnumeratedItem>
        <EnumeratedItem CodedValue="ANKLE MORTISE">
          <Alias Context="nci:ExtCodeID" Name="C117868"/>
        </EnumeratedItem>
        <EnumeratedItem CodedValue="ANORECTUM">
          <Alias Context="nci:ExtCodeID" Name="C186102"/>
        </EnumeratedItem>
        <EnumeratedItem CodedValue="ANTECUBITAL FOSSA">
          <Alias Context="nci:ExtCodeID" Name="C103238"/>
        </EnumeratedItem>
        <EnumeratedItem CodedValue="ANTERIOR CINGULATE CORTEX">
          <Alias Context="nci:ExtCodeID" Name="C139185"/>
        </EnumeratedItem>
        <EnumeratedItem CodedValue="ANTERIOR CINGULATE GYRUS">
          <Alias Context="nci:ExtCodeID" Name="C187996"/>
        </EnumeratedItem>
        <EnumeratedItem CodedValue="ANTERIOR HORN OF THE LATERAL VENTRICLE">
          <Alias Context="nci:ExtCodeID" Name="C32637"/>
        </EnumeratedItem>
        <EnumeratedItem CodedValue="ANTERIOR INFERIOR CEREBELLAR ARTERY">
          <Alias Context="nci:ExtCodeID" Name="C32091"/>
        </EnumeratedItem>
        <EnumeratedItem CodedValue="ANTERIOR MEDIASTINAL LYMPH NODE">
          <Alias Context="nci:ExtCodeID" Name="C32097"/>
        </EnumeratedItem>
        <EnumeratedItem CodedValue="ANTERIOR SUPERIOR ILIAC SPINE">
          <Alias Context="nci:ExtCodeID" Name="C139187"/>
        </EnumeratedItem>
        <EnumeratedItem CodedValue="ANTERIOR TIBIAL ARTERY">
          <Alias Context="nci:ExtCodeID" Name="C12825"/>
        </EnumeratedItem>
        <EnumeratedItem CodedValue="ANTERIOR TIBIAL VEIN">
          <Alias Context="nci:ExtCodeID" Name="C32115"/>
        </EnumeratedItem>
        <EnumeratedItem CodedValue="ANTRUM PYLORI">
          <Alias Context="nci:ExtCodeID" Name="C12259"/>
        </EnumeratedItem>
        <EnumeratedItem CodedValue="ANUS">
          <Alias Context="nci:ExtCodeID" Name="C43362"/>
        </EnumeratedItem>
        <EnumeratedItem CodedValue="AORTA">
          <Alias Context="nci:ExtCodeID" Name="C12669"/>
        </EnumeratedItem>
        <EnumeratedItem CodedValue="AORTIC ARCH">
          <Alias Context="nci:ExtCodeID" Name="C32123"/>
        </EnumeratedItem>
        <EnumeratedItem CodedValue="AORTIC BODY">
          <Alias Context="nci:ExtCodeID" Name="C97112"/>
        </EnumeratedItem>
        <EnumeratedItem CodedValue="AORTIC VALVE">
          <Alias Context="nci:ExtCodeID" Name="C12670"/>
        </EnumeratedItem>
        <EnumeratedItem CodedValue="AORTIC VALVE ANNULUS">
          <Alias Context="nci:ExtCodeID" Name="C130167"/>
        </EnumeratedItem>
        <EnumeratedItem CodedValue="AORTIC VALVE, LEFT CORONARY CUSP">
          <Alias Context="nci:ExtCodeID" Name="C127638"/>
        </EnumeratedItem>
        <EnumeratedItem CodedValue="AORTIC VALVE, NON-CORONARY CUSP">
          <Alias Context="nci:ExtCodeID" Name="C127639"/>
        </EnumeratedItem>
        <EnumeratedItem CodedValue="AORTIC VALVE, RIGHT CORONARY CUSP">
          <Alias Context="nci:ExtCodeID" Name="C127640"/>
        </EnumeratedItem>
        <EnumeratedItem CodedValue="AORTICOPULMONARY SEPTUM">
          <Alias Context="nci:ExtCodeID" Name="C186103"/>
        </EnumeratedItem>
        <EnumeratedItem CodedValue="AORTO-ILIAC PERIPHERAL ARTERY">
          <Alias Context="nci:ExtCodeID" Name="C116166"/>
        </EnumeratedItem>
        <EnumeratedItem CodedValue="AORTOCAVAL LYMPH NODE">
          <Alias Context="nci:ExtCodeID" Name="C118775"/>
        </EnumeratedItem>
        <EnumeratedItem CodedValue="AORTOPULMONARY WINDOW LYMPH NODE">
          <Alias Context="nci:ExtCodeID" Name="C116165"/>
        </EnumeratedItem>
        <EnumeratedItem CodedValue="APPENDICEAL TIP">
          <Alias Context="nci:ExtCodeID" Name="C83470"/>
        </EnumeratedItem>
        <EnumeratedItem CodedValue="APPENDICULAR SKELETON">
          <Alias Context="nci:ExtCodeID" Name="C49477"/>
        </EnumeratedItem>
        <EnumeratedItem CodedValue="APPENDIX">
          <Alias Context="nci:ExtCodeID" Name="C12380"/>
        </EnumeratedItem>
        <EnumeratedItem CodedValue="AQUEOUS HUMOR">
          <Alias Context="nci:ExtCodeID" Name="C13190"/>
        </EnumeratedItem>
        <EnumeratedItem CodedValue="ARM">
          <Alias Context="nci:ExtCodeID" Name="C32141"/>
        </EnumeratedItem>
        <EnumeratedItem CodedValue="ARM SKIN">
          <Alias Context="nci:ExtCodeID" Name="C52754"/>
        </EnumeratedItem>
        <EnumeratedItem CodedValue="ARTERY">
          <Alias Context="nci:ExtCodeID" Name="C12372"/>
        </EnumeratedItem>
        <EnumeratedItem CodedValue="ASCENDING AORTA">
          <Alias Context="nci:ExtCodeID" Name="C32150"/>
        </EnumeratedItem>
        <EnumeratedItem CodedValue="ASCENDING AORTA, AORTIC ROOT">
          <Alias Context="nci:ExtCodeID" Name="C127641"/>
        </EnumeratedItem>
        <EnumeratedItem CodedValue="ASCENDING AORTA, SINOTUBULAR JUNCTION">
          <Alias Context="nci:ExtCodeID" Name="C127642"/>
        </EnumeratedItem>
        <EnumeratedItem CodedValue="ASCENDING AORTA, SINUS OF VALSALVA">
          <Alias Context="nci:ExtCodeID" Name="C33557"/>
        </EnumeratedItem>
        <EnumeratedItem CodedValue="ATRIOVENTRICULAR SEPTUM">
          <Alias Context="nci:ExtCodeID" Name="C186104"/>
        </EnumeratedItem>
        <EnumeratedItem CodedValue="ATRIOVENTRICULAR VALVE">
          <Alias Context="nci:ExtCodeID" Name="C176322"/>
        </EnumeratedItem>
        <EnumeratedItem CodedValue="AUDITORY OSSICLE">
          <Alias Context="nci:ExtCodeID" Name="C32164"/>
        </EnumeratedItem>
        <EnumeratedItem CodedValue="AXIAL SKELETON">
          <Alias Context="nci:ExtCodeID" Name="C32172"/>
        </EnumeratedItem>
        <EnumeratedItem CodedValue="AXILLA">
          <Alias Context="nci:ExtCodeID" Name="C12674"/>
        </EnumeratedItem>
        <EnumeratedItem CodedValue="AXILLARY ARTERY">
          <Alias Context="nci:ExtCodeID" Name="C32169"/>
        </EnumeratedItem>
        <EnumeratedItem CodedValue="AXILLARY LYMPH NODE">
          <Alias Context="nci:ExtCodeID" Name="C12904"/>
        </EnumeratedItem>
        <EnumeratedItem CodedValue="AXILLARY LYMPH NODE LEVEL I">
          <Alias Context="nci:ExtCodeID" Name="C123461"/>
        </EnumeratedItem>
        <EnumeratedItem CodedValue="AXILLARY LYMPH NODE LEVEL II">
          <Alias Context="nci:ExtCodeID" Name="C123462"/>
        </EnumeratedItem>
        <EnumeratedItem CodedValue="AXILLARY LYMPH NODE LEVEL III">
          <Alias Context="nci:ExtCodeID" Name="C123463"/>
        </EnumeratedItem>
        <EnumeratedItem CodedValue="AXILLARY VEIN">
          <Alias Context="nci:ExtCodeID" Name="C32171"/>
        </EnumeratedItem>
        <EnumeratedItem CodedValue="AZYGOS VEIN">
          <Alias Context="nci:ExtCodeID" Name="C53029"/>
        </EnumeratedItem>
        <EnumeratedItem CodedValue="BACK">
          <Alias Context="nci:ExtCodeID" Name="C13062"/>
        </EnumeratedItem>
        <EnumeratedItem CodedValue="BASAL GANGLIA">
          <Alias Context="nci:ExtCodeID" Name="C12447"/>
        </EnumeratedItem>
        <EnumeratedItem CodedValue="BASE OF THE TONGUE">
          <Alias Context="nci:ExtCodeID" Name="C12228"/>
        </EnumeratedItem>
        <EnumeratedItem CodedValue="BASILAR ARTERY">
          <Alias Context="nci:ExtCodeID" Name="C12676"/>
        </EnumeratedItem>
        <EnumeratedItem CodedValue="BASILIC VEIN">
          <Alias Context="nci:ExtCodeID" Name="C32197"/>
        </EnumeratedItem>
        <EnumeratedItem CodedValue="BASIOCCIPITAL BONE">
          <Alias Context="nci:ExtCodeID" Name="C186105"/>
        </EnumeratedItem>
        <EnumeratedItem CodedValue="BASISPHENOID BONE">
          <Alias Context="nci:ExtCodeID" Name="C186106"/>
        </EnumeratedItem>
        <EnumeratedItem CodedValue="BICEPS BRACHII MUSCLE">
          <Alias Context="nci:ExtCodeID" Name="C32200"/>
        </EnumeratedItem>
        <EnumeratedItem CodedValue="BICEPS FEMORIS MUSCLE">
          <Alias Context="nci:ExtCodeID" Name="C53147"/>
        </EnumeratedItem>
        <EnumeratedItem CodedValue="BILE DUCT">
          <Alias Context="nci:ExtCodeID" Name="C12376"/>
        </EnumeratedItem>
        <EnumeratedItem CodedValue="BILIARY TRACT">
          <Alias Context="nci:ExtCodeID" Name="C12678"/>
        </EnumeratedItem>
        <EnumeratedItem CodedValue="BLADDER">
          <Alias Context="nci:ExtCodeID" Name="C12414"/>
        </EnumeratedItem>
        <EnumeratedItem CodedValue="BLADDER WALL">
          <Alias Context="nci:ExtCodeID" Name="C48941"/>
        </EnumeratedItem>
        <EnumeratedItem CodedValue="BLADDER, APEX">
          <Alias Context="nci:ExtCodeID" Name="C198292"/>
        </EnumeratedItem>
        <EnumeratedItem CodedValue="BLADDER, BODY">
          <Alias Context="nci:ExtCodeID" Name="C198293"/>
        </EnumeratedItem>
        <EnumeratedItem CodedValue="BLADDER, DOME">
          <Alias Context="nci:ExtCodeID" Name="C12332"/>
        </EnumeratedItem>
        <EnumeratedItem CodedValue="BLADDER, FUNDUS">
          <Alias Context="nci:ExtCodeID" Name="C48939"/>
        </EnumeratedItem>
        <EnumeratedItem CodedValue="BLADDER, NECK">
          <Alias Context="nci:ExtCodeID" Name="C12336"/>
        </EnumeratedItem>
        <EnumeratedItem CodedValue="BLADDER, TRIGONE">
          <Alias Context="nci:ExtCodeID" Name="C12331"/>
        </EnumeratedItem>
        <EnumeratedItem CodedValue="BLOOD">
          <Alias Context="nci:ExtCodeID" Name="C12434"/>
        </EnumeratedItem>
        <EnumeratedItem CodedValue="BLOOD VESSEL">
          <Alias Context="nci:ExtCodeID" Name="C12679"/>
        </EnumeratedItem>
        <EnumeratedItem CodedValue="BODY">
          <Alias Context="nci:ExtCodeID" Name="C13041"/>
        </EnumeratedItem>
        <EnumeratedItem CodedValue="BODY OF STOMACH">
          <Alias Context="nci:ExtCodeID" Name="C12258"/>
        </EnumeratedItem>
        <EnumeratedItem CodedValue="BONE">
          <Alias Context="nci:ExtCodeID" Name="C12366"/>
        </EnumeratedItem>
        <EnumeratedItem CodedValue="BONE MARROW">
          <Alias Context="nci:ExtCodeID" Name="C12431"/>
        </EnumeratedItem>
        <EnumeratedItem CodedValue="BRACHIAL ARTERY">
          <Alias Context="nci:ExtCodeID" Name="C12681"/>
        </EnumeratedItem>
        <EnumeratedItem CodedValue="BRACHIAL LYMPH NODE">
          <Alias Context="nci:ExtCodeID" Name="C92221"/>
        </EnumeratedItem>
        <EnumeratedItem CodedValue="BRACHIAL PLEXUS">
          <Alias Context="nci:ExtCodeID" Name="C12682"/>
        </EnumeratedItem>
        <EnumeratedItem CodedValue="BRACHIAL VEIN">
          <Alias Context="nci:ExtCodeID" Name="C12883"/>
        </EnumeratedItem>
        <EnumeratedItem CodedValue="BRACHIALIS MUSCLE">
          <Alias Context="nci:ExtCodeID" Name="C53149"/>
        </EnumeratedItem>
        <EnumeratedItem CodedValue="BRACHIOCEPHALIC ARTERY">
          <Alias Context="nci:ExtCodeID" Name="C32814"/>
        </EnumeratedItem>
        <EnumeratedItem CodedValue="BRACHIORADIALIS MUSCLE">
          <Alias Context="nci:ExtCodeID" Name="C150849"/>
        </EnumeratedItem>
        <EnumeratedItem CodedValue="BRAIN">
          <Alias Context="nci:ExtCodeID" Name="C12439"/>
        </EnumeratedItem>
        <EnumeratedItem CodedValue="BRAIN STEM">
          <Alias Context="nci:ExtCodeID" Name="C12441"/>
        </EnumeratedItem>
        <EnumeratedItem CodedValue="BRAIN VENTRICLE">
          <Alias Context="nci:ExtCodeID" Name="C12356"/>
        </EnumeratedItem>
        <EnumeratedItem CodedValue="BRAIN VENTRICLE, LATERAL">
          <Alias Context="nci:ExtCodeID" Name="C12834"/>
        </EnumeratedItem>
        <EnumeratedItem CodedValue="BRAIN, EXTERNAL CAPSULE">
          <Alias Context="nci:ExtCodeID" Name="C32550"/>
        </EnumeratedItem>
        <EnumeratedItem CodedValue="BRAIN, FOURTH VENTRICLE">
          <Alias Context="nci:ExtCodeID" Name="C12828"/>
        </EnumeratedItem>
        <EnumeratedItem CodedValue="BRAIN, INTERNAL CAPSULE">
          <Alias Context="nci:ExtCodeID" Name="C13082"/>
        </EnumeratedItem>
        <EnumeratedItem CodedValue="BRAIN, PERIVENTRICULAR REGION">
          <Alias Context="nci:ExtCodeID" Name="C132390"/>
        </EnumeratedItem>
        <EnumeratedItem CodedValue="BRAIN, THIRD VENTRICLE">
          <Alias Context="nci:ExtCodeID" Name="C12827"/>
        </EnumeratedItem>
        <EnumeratedItem CodedValue="BREAST">
          <Alias Context="nci:ExtCodeID" Name="C12971"/>
        </EnumeratedItem>
        <EnumeratedItem CodedValue="BROAD LIGAMENT">
          <Alias Context="nci:ExtCodeID" Name="C12318"/>
        </EnumeratedItem>
        <EnumeratedItem CodedValue="BRONCHIAL STUMP">
          <Alias Context="nci:ExtCodeID" Name="C186107"/>
        </EnumeratedItem>
        <EnumeratedItem CodedValue="BRONCHIOLE">
          <Alias Context="nci:ExtCodeID" Name="C12684"/>
        </EnumeratedItem>
        <EnumeratedItem CodedValue="BRONCHUS">
          <Alias Context="nci:ExtCodeID" Name="C12683"/>
        </EnumeratedItem>
        <EnumeratedItem CodedValue="BUCCAL LYMPH NODE">
          <Alias Context="nci:ExtCodeID" Name="C154770"/>
        </EnumeratedItem>
        <EnumeratedItem CodedValue="BUCCAL MUCOSA">
          <Alias Context="nci:ExtCodeID" Name="C12505"/>
        </EnumeratedItem>
        <EnumeratedItem CodedValue="BULBAR CONJUNCTIVA">
          <Alias Context="nci:ExtCodeID" Name="C12902"/>
        </EnumeratedItem>
        <EnumeratedItem CodedValue="BUTTOCK">
          <Alias Context="nci:ExtCodeID" Name="C89806"/>
        </EnumeratedItem>
        <EnumeratedItem CodedValue="C1 VERTEBRA">
          <Alias Context="nci:ExtCodeID" Name="C32239"/>
        </EnumeratedItem>
        <EnumeratedItem CodedValue="C2 VERTEBRA">
          <Alias Context="nci:ExtCodeID" Name="C32240"/>
        </EnumeratedItem>
        <EnumeratedItem CodedValue="C3 VERTEBRA">
          <Alias Context="nci:ExtCodeID" Name="C32241"/>
        </EnumeratedItem>
        <EnumeratedItem CodedValue="C4 VERTEBRA">
          <Alias Context="nci:ExtCodeID" Name="C32242"/>
        </EnumeratedItem>
        <EnumeratedItem CodedValue="C5 VERTEBRA">
          <Alias Context="nci:ExtCodeID" Name="C32243"/>
        </EnumeratedItem>
        <EnumeratedItem CodedValue="C6 VERTEBRA">
          <Alias Context="nci:ExtCodeID" Name="C32244"/>
        </EnumeratedItem>
        <EnumeratedItem CodedValue="C7 VERTEBRA">
          <Alias Context="nci:ExtCodeID" Name="C32245"/>
        </EnumeratedItem>
        <EnumeratedItem CodedValue="CALCANEAL TUBEROSITY">
          <Alias Context="nci:ExtCodeID" Name="C142295"/>
        </EnumeratedItem>
        <EnumeratedItem CodedValue="CALCANEUS">
          <Alias Context="nci:ExtCodeID" Name="C32250"/>
        </EnumeratedItem>
        <EnumeratedItem CodedValue="CALCARINE SULCUS">
          <Alias Context="nci:ExtCodeID" Name="C32252"/>
        </EnumeratedItem>
        <EnumeratedItem CodedValue="CALF">
          <Alias Context="nci:ExtCodeID" Name="C93027"/>
        </EnumeratedItem>
        <EnumeratedItem CodedValue="CALF MUSCULAR VEIN">
          <Alias Context="nci:ExtCodeID" Name="C154703"/>
        </EnumeratedItem>
        <EnumeratedItem CodedValue="CANINE TOOTH">
          <Alias Context="nci:ExtCodeID" Name="C32258"/>
        </EnumeratedItem>
        <EnumeratedItem CodedValue="CAPITATE BONE">
          <Alias Context="nci:ExtCodeID" Name="C12856"/>
        </EnumeratedItem>
        <EnumeratedItem CodedValue="CAPITATE-HAMATE JOINT">
          <Alias Context="nci:ExtCodeID" Name="C139188"/>
        </EnumeratedItem>
        <EnumeratedItem CodedValue="CAPITATE-LUNATE JOINT">
          <Alias Context="nci:ExtCodeID" Name="C139189"/>
        </EnumeratedItem>
        <EnumeratedItem CodedValue="CARDIAC VALVE">
          <Alias Context="nci:ExtCodeID" Name="C12729"/>
        </EnumeratedItem>
        <EnumeratedItem CodedValue="CARDIAC WALL">
          <Alias Context="nci:ExtCodeID" Name="C139201"/>
        </EnumeratedItem>
        <EnumeratedItem CodedValue="CARDIOPHRENIC LYMPH NODE">
          <Alias Context="nci:ExtCodeID" Name="C121555"/>
        </EnumeratedItem>
        <EnumeratedItem CodedValue="CARDIOVASCULAR SYSTEM">
          <Alias Context="nci:ExtCodeID" Name="C12686"/>
        </EnumeratedItem>
        <EnumeratedItem CodedValue="CARINA">
          <Alias Context="nci:ExtCodeID" Name="C25264"/>
        </EnumeratedItem>
        <EnumeratedItem CodedValue="CAROTID ARTERY">
          <Alias Context="nci:ExtCodeID" Name="C12687"/>
        </EnumeratedItem>
        <EnumeratedItem CodedValue="CAROTID BODY">
          <Alias Context="nci:ExtCodeID" Name="C66852"/>
        </EnumeratedItem>
        <EnumeratedItem CodedValue="CARPAL BONE">
          <Alias Context="nci:ExtCodeID" Name="C12688"/>
        </EnumeratedItem>
        <EnumeratedItem CodedValue="CARPOMETACARPAL JOINT">
          <Alias Context="nci:ExtCodeID" Name="C32265"/>
        </EnumeratedItem>
        <EnumeratedItem CodedValue="CARPOMETACARPAL JOINT 1">
          <Alias Context="nci:ExtCodeID" Name="C103912"/>
        </EnumeratedItem>
        <EnumeratedItem CodedValue="CARPOMETACARPAL JOINT 2">
          <Alias Context="nci:ExtCodeID" Name="C103913"/>
        </EnumeratedItem>
        <EnumeratedItem CodedValue="CARPOMETACARPAL JOINT 3">
          <Alias Context="nci:ExtCodeID" Name="C103914"/>
        </EnumeratedItem>
        <EnumeratedItem CodedValue="CARPOMETACARPAL JOINT 4">
          <Alias Context="nci:ExtCodeID" Name="C103915"/>
        </EnumeratedItem>
        <EnumeratedItem CodedValue="CARPOMETACARPAL JOINT 5">
          <Alias Context="nci:ExtCodeID" Name="C103916"/>
        </EnumeratedItem>
        <EnumeratedItem CodedValue="CARTILAGE">
          <Alias Context="nci:ExtCodeID" Name="C12373"/>
        </EnumeratedItem>
        <EnumeratedItem CodedValue="CAUDAL VERTEBRA">
          <Alias Context="nci:ExtCodeID" Name="C176319"/>
        </EnumeratedItem>
        <EnumeratedItem CodedValue="CAUDATE NUCLEUS">
          <Alias Context="nci:ExtCodeID" Name="C12451"/>
        </EnumeratedItem>
        <EnumeratedItem CodedValue="CECUM">
          <Alias Context="nci:ExtCodeID" Name="C12381"/>
        </EnumeratedItem>
        <EnumeratedItem CodedValue="CELIAC ARTERY">
          <Alias Context="nci:ExtCodeID" Name="C52846"/>
        </EnumeratedItem>
        <EnumeratedItem CodedValue="CELIAC LYMPH NODE">
          <Alias Context="nci:ExtCodeID" Name="C65166"/>
        </EnumeratedItem>
        <EnumeratedItem CodedValue="CENTRAL NERVOUS SYSTEM">
          <Alias Context="nci:ExtCodeID" Name="C12438"/>
        </EnumeratedItem>
        <EnumeratedItem CodedValue="CEPHALIC VEIN">
          <Alias Context="nci:ExtCodeID" Name="C32286"/>
        </EnumeratedItem>
        <EnumeratedItem CodedValue="CEREBELLAR LOBE">
          <Alias Context="nci:ExtCodeID" Name="C186108"/>
        </EnumeratedItem>
        <EnumeratedItem CodedValue="CEREBELLUM">
          <Alias Context="nci:ExtCodeID" Name="C12445"/>
        </EnumeratedItem>
        <EnumeratedItem CodedValue="CEREBRAL ARTERY">
          <Alias Context="nci:ExtCodeID" Name="C12691"/>
        </EnumeratedItem>
        <EnumeratedItem CodedValue="CEREBRAL CORTEX">
          <Alias Context="nci:ExtCodeID" Name="C12443"/>
        </EnumeratedItem>
        <EnumeratedItem CodedValue="CEREBRAL HEMISPHERE, LEFT">
          <Alias Context="nci:ExtCodeID" Name="C32955"/>
        </EnumeratedItem>
        <EnumeratedItem CodedValue="CEREBRAL HEMISPHERE, RIGHT">
          <Alias Context="nci:ExtCodeID" Name="C33472"/>
        </EnumeratedItem>
        <EnumeratedItem CodedValue="CEREBRAL PEDUNCLE">
          <Alias Context="nci:ExtCodeID" Name="C32291"/>
        </EnumeratedItem>
        <EnumeratedItem CodedValue="CEREBRAL SUBCORTEX">
          <Alias Context="nci:ExtCodeID" Name="C98712"/>
        </EnumeratedItem>
        <EnumeratedItem CodedValue="CEREBRAL VEIN">
          <Alias Context="nci:ExtCodeID" Name="C53037"/>
        </EnumeratedItem>
        <EnumeratedItem CodedValue="CEREBRUM">
          <Alias Context="nci:ExtCodeID" Name="C12351"/>
        </EnumeratedItem>
        <EnumeratedItem CodedValue="CERVICAL LYMPH NODE">
          <Alias Context="nci:ExtCodeID" Name="C32298"/>
        </EnumeratedItem>
        <EnumeratedItem CodedValue="CERVICAL SPINE">
          <Alias Context="nci:ExtCodeID" Name="C69313"/>
        </EnumeratedItem>
        <EnumeratedItem CodedValue="CERVICAL VERTEBRA">
          <Alias Context="nci:ExtCodeID" Name="C12693"/>
        </EnumeratedItem>
        <EnumeratedItem CodedValue="CERVICOVAGINAL REGION">
          <Alias Context="nci:ExtCodeID" Name="C178002"/>
        </EnumeratedItem>
        <EnumeratedItem CodedValue="CERVIX UTERI">
          <Alias Context="nci:ExtCodeID" Name="C12311"/>
        </EnumeratedItem>
        <EnumeratedItem CodedValue="CHEEK">
          <Alias Context="nci:ExtCodeID" Name="C13070"/>
        </EnumeratedItem>
        <EnumeratedItem CodedValue="CHEST">
          <Alias Context="nci:ExtCodeID" Name="C25389"/>
        </EnumeratedItem>
        <EnumeratedItem CodedValue="CHEST WALL">
          <Alias Context="nci:ExtCodeID" Name="C62484"/>
        </EnumeratedItem>
        <EnumeratedItem CodedValue="CHIN">
          <Alias Context="nci:ExtCodeID" Name="C81169"/>
        </EnumeratedItem>
        <EnumeratedItem CodedValue="CHORDAE TENDINEAE">
          <Alias Context="nci:ExtCodeID" Name="C32307"/>
        </EnumeratedItem>
        <EnumeratedItem CodedValue="CHOROID">
          <Alias Context="nci:ExtCodeID" Name="C12344"/>
        </EnumeratedItem>
        <EnumeratedItem CodedValue="CHOROID PLEXUS">
          <Alias Context="nci:ExtCodeID" Name="C12694"/>
        </EnumeratedItem>
        <EnumeratedItem CodedValue="CILIARY BODY">
          <Alias Context="nci:ExtCodeID" Name="C12345"/>
        </EnumeratedItem>
        <EnumeratedItem CodedValue="CINGULATE CORTEX">
          <Alias Context="nci:ExtCodeID" Name="C52713"/>
        </EnumeratedItem>
        <EnumeratedItem CodedValue="CIRCUMFLEX ARTERY AV GROOVE CONTINUATION ARTERY">
          <Alias Context="nci:ExtCodeID" Name="C102287"/>
        </EnumeratedItem>
        <EnumeratedItem CodedValue="CIRCUMFLEX, OBTUSE MARGINALS, LEFT POSTEROLATERAL AND LEFT POSTERIOR DESCENDING ARTERY BRANCHES">
          <Alias Context="nci:ExtCodeID" Name="C102286"/>
        </EnumeratedItem>
        <EnumeratedItem CodedValue="CLAVICLE">
          <Alias Context="nci:ExtCodeID" Name="C12695"/>
        </EnumeratedItem>
        <EnumeratedItem CodedValue="CLAW">
          <Alias Context="nci:ExtCodeID" Name="C176323"/>
        </EnumeratedItem>
        <EnumeratedItem CodedValue="CLITORIS">
          <Alias Context="nci:ExtCodeID" Name="C12308"/>
        </EnumeratedItem>
        <EnumeratedItem CodedValue="CLIVUS">
          <Alias Context="nci:ExtCodeID" Name="C12494"/>
        </EnumeratedItem>
        <EnumeratedItem CodedValue="COCCYGEAL VERTEBRA">
          <Alias Context="nci:ExtCodeID" Name="C32334"/>
        </EnumeratedItem>
        <EnumeratedItem CodedValue="COCCYX">
          <Alias Context="nci:ExtCodeID" Name="C12696"/>
        </EnumeratedItem>
        <EnumeratedItem CodedValue="COLON">
          <Alias Context="nci:ExtCodeID" Name="C12382"/>
        </EnumeratedItem>
        <EnumeratedItem CodedValue="COLON LYMPH NODE">
          <Alias Context="nci:ExtCodeID" Name="C176317"/>
        </EnumeratedItem>
        <EnumeratedItem CodedValue="COLON WALL">
          <Alias Context="nci:ExtCodeID" Name="C176315"/>
        </EnumeratedItem>
        <EnumeratedItem CodedValue="COLON, ASCENDING">
          <Alias Context="nci:ExtCodeID" Name="C12265"/>
        </EnumeratedItem>
        <EnumeratedItem CodedValue="COLON, DESCENDING">
          <Alias Context="nci:ExtCodeID" Name="C12268"/>
        </EnumeratedItem>
        <EnumeratedItem CodedValue="COLON, HEPATIC FLEXURE">
          <Alias Context="nci:ExtCodeID" Name="C12266"/>
        </EnumeratedItem>
        <EnumeratedItem CodedValue="COLON, LEFT">
          <Alias Context="nci:ExtCodeID" Name="C33929"/>
        </EnumeratedItem>
        <EnumeratedItem CodedValue="COLON, RECTOSIGMOID">
          <Alias Context="nci:ExtCodeID" Name="C103438"/>
        </EnumeratedItem>
        <EnumeratedItem CodedValue="COLON, RIGHT">
          <Alias Context="nci:ExtCodeID" Name="C12383"/>
        </EnumeratedItem>
        <EnumeratedItem CodedValue="COLON, SIGMOID">
          <Alias Context="nci:ExtCodeID" Name="C12384"/>
        </EnumeratedItem>
        <EnumeratedItem CodedValue="COLON, SPLENIC FLEXURE">
          <Alias Context="nci:ExtCodeID" Name="C12267"/>
        </EnumeratedItem>
        <EnumeratedItem CodedValue="COLON, TRANSVERSE">
          <Alias Context="nci:ExtCodeID" Name="C12385"/>
        </EnumeratedItem>
        <EnumeratedItem CodedValue="COLONIC MUCOSA">
          <Alias Context="nci:ExtCodeID" Name="C164003"/>
        </EnumeratedItem>
        <EnumeratedItem CodedValue="COMMON BILE DUCT">
          <Alias Context="nci:ExtCodeID" Name="C12698"/>
        </EnumeratedItem>
        <EnumeratedItem CodedValue="COMMON FEMORAL ARTERY">
          <Alias Context="nci:ExtCodeID" Name="C32354"/>
        </EnumeratedItem>
        <EnumeratedItem CodedValue="COMMON FEMORAL VEIN">
          <Alias Context="nci:ExtCodeID" Name="C154771"/>
        </EnumeratedItem>
        <EnumeratedItem CodedValue="COMMON ILIAC ARTERY">
          <Alias Context="nci:ExtCodeID" Name="C32357"/>
        </EnumeratedItem>
        <EnumeratedItem CodedValue="COMMON ILIAC LYMPH NODE">
          <Alias Context="nci:ExtCodeID" Name="C103384"/>
        </EnumeratedItem>
        <EnumeratedItem CodedValue="COMMON PALMAR DIGITAL ARTERY">
          <Alias Context="nci:ExtCodeID" Name="C52744"/>
        </EnumeratedItem>
        <EnumeratedItem CodedValue="CONJUNCTIVA">
          <Alias Context="nci:ExtCodeID" Name="C12341"/>
        </EnumeratedItem>
        <EnumeratedItem CodedValue="CORNEA">
          <Alias Context="nci:ExtCodeID" Name="C12342"/>
        </EnumeratedItem>
        <EnumeratedItem CodedValue="CORNEAL ENDOTHELIUM">
          <Alias Context="nci:ExtCodeID" Name="C12707"/>
        </EnumeratedItem>
        <EnumeratedItem CodedValue="CORNEAL EPITHELIUM">
          <Alias Context="nci:ExtCodeID" Name="C12928"/>
        </EnumeratedItem>
        <EnumeratedItem CodedValue="CORNEAL STROMA">
          <Alias Context="nci:ExtCodeID" Name="C12699"/>
        </EnumeratedItem>
        <EnumeratedItem CodedValue="CORONARY ARTERY">
          <Alias Context="nci:ExtCodeID" Name="C12843"/>
        </EnumeratedItem>
        <EnumeratedItem CodedValue="CORONARY ARTERY, ANTERIOR DESCENDING">
          <Alias Context="nci:ExtCodeID" Name="C32089"/>
        </EnumeratedItem>
        <EnumeratedItem CodedValue="CORONARY ARTERY, LEFT">
          <Alias Context="nci:ExtCodeID" Name="C12872"/>
        </EnumeratedItem>
        <EnumeratedItem CodedValue="CORONARY ARTERY, RIGHT">
          <Alias Context="nci:ExtCodeID" Name="C12875"/>
        </EnumeratedItem>
        <EnumeratedItem CodedValue="CORONARY SINUS">
          <Alias Context="nci:ExtCodeID" Name="C32378"/>
        </EnumeratedItem>
        <EnumeratedItem CodedValue="CORONARY VEIN">
          <Alias Context="nci:ExtCodeID" Name="C12882"/>
        </EnumeratedItem>
        <EnumeratedItem CodedValue="CORPUS CALLOSUM">
          <Alias Context="nci:ExtCodeID" Name="C12446"/>
        </EnumeratedItem>
        <EnumeratedItem CodedValue="CORPUS CALLOSUM, BODY">
          <Alias Context="nci:ExtCodeID" Name="C32216"/>
        </EnumeratedItem>
        <EnumeratedItem CodedValue="CORPUS CALLOSUM, GENU">
          <Alias Context="nci:ExtCodeID" Name="C32675"/>
        </EnumeratedItem>
        <EnumeratedItem CodedValue="CORPUS CALLOSUM, SPLENIUM">
          <Alias Context="nci:ExtCodeID" Name="C33610"/>
        </EnumeratedItem>
        <EnumeratedItem CodedValue="CORPUS LUTEUM">
          <Alias Context="nci:ExtCodeID" Name="C26465"/>
        </EnumeratedItem>
        <EnumeratedItem CodedValue="CORPUS STRIATUM">
          <Alias Context="nci:ExtCodeID" Name="C12448"/>
        </EnumeratedItem>
        <EnumeratedItem CodedValue="CORPUS UTERI">
          <Alias Context="nci:ExtCodeID" Name="C12316"/>
        </EnumeratedItem>
        <EnumeratedItem CodedValue="CORRUGATOR SUPERCILII MUSCLE">
          <Alias Context="nci:ExtCodeID" Name="C163511"/>
        </EnumeratedItem>
        <EnumeratedItem CodedValue="COSTAL CARTILAGE">
          <Alias Context="nci:ExtCodeID" Name="C32391"/>
        </EnumeratedItem>
        <EnumeratedItem CodedValue="COSTOCHONDRAL JOINT 1">
          <Alias Context="nci:ExtCodeID" Name="C102288"/>
        </EnumeratedItem>
        <EnumeratedItem CodedValue="COSTOCHONDRAL JOINT 7">
          <Alias Context="nci:ExtCodeID" Name="C102289"/>
        </EnumeratedItem>
        <EnumeratedItem CodedValue="CRANIAL CAVITY">
          <Alias Context="nci:ExtCodeID" Name="C77638"/>
        </EnumeratedItem>
        <EnumeratedItem CodedValue="CRANIAL NERVE">
          <Alias Context="nci:ExtCodeID" Name="C12700"/>
        </EnumeratedItem>
        <EnumeratedItem CodedValue="CUBOID BONE">
          <Alias Context="nci:ExtCodeID" Name="C32414"/>
        </EnumeratedItem>
        <EnumeratedItem CodedValue="DELTOID MUSCLE">
          <Alias Context="nci:ExtCodeID" Name="C32446"/>
        </EnumeratedItem>
        <EnumeratedItem CodedValue="DENTAL ARCH">
          <Alias Context="nci:ExtCodeID" Name="C174321"/>
        </EnumeratedItem>
        <EnumeratedItem CodedValue="DERMAL PAPILLAE OF THE FACE">
          <Alias Context="nci:ExtCodeID" Name="C186109"/>
        </EnumeratedItem>
        <EnumeratedItem CodedValue="DESCENDING AORTA">
          <Alias Context="nci:ExtCodeID" Name="C32455"/>
        </EnumeratedItem>
        <EnumeratedItem CodedValue="DIAPHRAGM">
          <Alias Context="nci:ExtCodeID" Name="C12702"/>
        </EnumeratedItem>
        <EnumeratedItem CodedValue="DIAPHRAGMATIC LYMPH NODE">
          <Alias Context="nci:ExtCodeID" Name="C132391"/>
        </EnumeratedItem>
        <EnumeratedItem CodedValue="DIGIT">
          <Alias Context="nci:ExtCodeID" Name="C40186"/>
        </EnumeratedItem>
        <EnumeratedItem CodedValue="DIGITAL ARTERY">
          <Alias Context="nci:ExtCodeID" Name="C177918"/>
        </EnumeratedItem>
        <EnumeratedItem CodedValue="DISTAL CIRCUMFLEX ARTERY">
          <Alias Context="nci:ExtCodeID" Name="C102290"/>
        </EnumeratedItem>
        <EnumeratedItem CodedValue="DISTAL COMMON BILE DUCT">
          <Alias Context="nci:ExtCodeID" Name="C60801"/>
        </EnumeratedItem>
        <EnumeratedItem CodedValue="DISTAL EXTRAHEPATIC BILE DUCT REGION">
          <Alias Context="nci:ExtCodeID" Name="C174320"/>
        </EnumeratedItem>
        <EnumeratedItem CodedValue="DISTAL FEMUR R1">
          <Alias Context="nci:ExtCodeID" Name="C139208"/>
        </EnumeratedItem>
        <EnumeratedItem CodedValue="DISTAL INTERPHALANGEAL JOINT 2">
          <Alias Context="nci:ExtCodeID" Name="C102291"/>
        </EnumeratedItem>
        <EnumeratedItem CodedValue="DISTAL INTERPHALANGEAL JOINT 2 OF THE FOOT">
          <Alias Context="nci:ExtCodeID" Name="C114198"/>
        </EnumeratedItem>
        <EnumeratedItem CodedValue="DISTAL INTERPHALANGEAL JOINT 2 OF THE HAND">
          <Alias Context="nci:ExtCodeID" Name="C114188"/>
        </EnumeratedItem>
        <EnumeratedItem CodedValue="DISTAL INTERPHALANGEAL JOINT 3">
          <Alias Context="nci:ExtCodeID" Name="C102292"/>
        </EnumeratedItem>
        <EnumeratedItem CodedValue="DISTAL INTERPHALANGEAL JOINT 3 OF THE FOOT">
          <Alias Context="nci:ExtCodeID" Name="C114199"/>
        </EnumeratedItem>
        <EnumeratedItem CodedValue="DISTAL INTERPHALANGEAL JOINT 3 OF THE HAND">
          <Alias Context="nci:ExtCodeID" Name="C114189"/>
        </EnumeratedItem>
        <EnumeratedItem CodedValue="DISTAL INTERPHALANGEAL JOINT 4">
          <Alias Context="nci:ExtCodeID" Name="C102293"/>
        </EnumeratedItem>
        <EnumeratedItem CodedValue="DISTAL INTERPHALANGEAL JOINT 4 OF THE FOOT">
          <Alias Context="nci:ExtCodeID" Name="C114275"/>
        </EnumeratedItem>
        <EnumeratedItem CodedValue="DISTAL INTERPHALANGEAL JOINT 4 OF THE HAND">
          <Alias Context="nci:ExtCodeID" Name="C114273"/>
        </EnumeratedItem>
        <EnumeratedItem CodedValue="DISTAL INTERPHALANGEAL JOINT 5">
          <Alias Context="nci:ExtCodeID" Name="C102294"/>
        </EnumeratedItem>
        <EnumeratedItem CodedValue="DISTAL INTERPHALANGEAL JOINT 5 OF THE FOOT">
          <Alias Context="nci:ExtCodeID" Name="C114276"/>
        </EnumeratedItem>
        <EnumeratedItem CodedValue="DISTAL INTERPHALANGEAL JOINT 5 OF THE HAND">
          <Alias Context="nci:ExtCodeID" Name="C114274"/>
        </EnumeratedItem>
        <EnumeratedItem CodedValue="DISTAL LAD ARTERY">
          <Alias Context="nci:ExtCodeID" Name="C102295"/>
        </EnumeratedItem>
        <EnumeratedItem CodedValue="DISTAL PHALANX 2 OF THE HAND">
          <Alias Context="nci:ExtCodeID" Name="C139190"/>
        </EnumeratedItem>
        <EnumeratedItem CodedValue="DISTAL PHALANX 3 OF THE HAND">
          <Alias Context="nci:ExtCodeID" Name="C139191"/>
        </EnumeratedItem>
        <EnumeratedItem CodedValue="DISTAL PHALANX 4 OF THE HAND">
          <Alias Context="nci:ExtCodeID" Name="C139192"/>
        </EnumeratedItem>
        <EnumeratedItem CodedValue="DISTAL PHALANX 5 OF THE HAND">
          <Alias Context="nci:ExtCodeID" Name="C139193"/>
        </EnumeratedItem>
        <EnumeratedItem CodedValue="DISTAL RADIOULNAR JOINT">
          <Alias Context="nci:ExtCodeID" Name="C139194"/>
        </EnumeratedItem>
        <EnumeratedItem CodedValue="DISTAL RIGHT CORONARY ARTERY CONDUIT">
          <Alias Context="nci:ExtCodeID" Name="C102296"/>
        </EnumeratedItem>
        <EnumeratedItem CodedValue="DISTANT LYMPH NODE">
          <Alias Context="nci:ExtCodeID" Name="C106042"/>
        </EnumeratedItem>
        <EnumeratedItem CodedValue="DORSAL MOTOR NUCLEUS">
          <Alias Context="nci:ExtCodeID" Name="C12934"/>
        </EnumeratedItem>
        <EnumeratedItem CodedValue="DORSALIS PEDIS ARTERY">
          <Alias Context="nci:ExtCodeID" Name="C32478"/>
        </EnumeratedItem>
        <EnumeratedItem CodedValue="DUCTUS ARTERIOSUS">
          <Alias Context="nci:ExtCodeID" Name="C52854"/>
        </EnumeratedItem>
        <EnumeratedItem CodedValue="DUODENUM">
          <Alias Context="nci:ExtCodeID" Name="C12263"/>
        </EnumeratedItem>
        <EnumeratedItem CodedValue="DURA MATER">
          <Alias Context="nci:ExtCodeID" Name="C32488"/>
        </EnumeratedItem>
        <EnumeratedItem CodedValue="DURAL VENOUS SINUS">
          <Alias Context="nci:ExtCodeID" Name="C102627"/>
        </EnumeratedItem>
        <EnumeratedItem CodedValue="EAR">
          <Alias Context="nci:ExtCodeID" Name="C12394"/>
        </EnumeratedItem>
        <EnumeratedItem CodedValue="EAR, INNER">
          <Alias Context="nci:ExtCodeID" Name="C12499"/>
        </EnumeratedItem>
        <EnumeratedItem CodedValue="EAR, OUTER">
          <Alias Context="nci:ExtCodeID" Name="C12292"/>
        </EnumeratedItem>
        <EnumeratedItem CodedValue="EARLOBE">
          <Alias Context="nci:ExtCodeID" Name="C32999"/>
        </EnumeratedItem>
        <EnumeratedItem CodedValue="ELBOW EXTENSOR MUSCLES">
          <Alias Context="nci:ExtCodeID" Name="C163512"/>
        </EnumeratedItem>
        <EnumeratedItem CodedValue="ELBOW FLEXOR MUSCLES">
          <Alias Context="nci:ExtCodeID" Name="C163513"/>
        </EnumeratedItem>
        <EnumeratedItem CodedValue="ELBOW JOINT">
          <Alias Context="nci:ExtCodeID" Name="C32497"/>
        </EnumeratedItem>
        <EnumeratedItem CodedValue="ENDOCARDIUM">
          <Alias Context="nci:ExtCodeID" Name="C13004"/>
        </EnumeratedItem>
        <EnumeratedItem CodedValue="ENDOCERVIX">
          <Alias Context="nci:ExtCodeID" Name="C12309"/>
        </EnumeratedItem>
        <EnumeratedItem CodedValue="ENDOMETRIAL CAVITY">
          <Alias Context="nci:ExtCodeID" Name="C32514"/>
        </EnumeratedItem>
        <EnumeratedItem CodedValue="ENDOMETRIUM">
          <Alias Context="nci:ExtCodeID" Name="C12313"/>
        </EnumeratedItem>
        <EnumeratedItem CodedValue="ENTORHINAL CORTEX">
          <Alias Context="nci:ExtCodeID" Name="C97338"/>
        </EnumeratedItem>
        <EnumeratedItem CodedValue="EPICARDIUM">
          <Alias Context="nci:ExtCodeID" Name="C13164"/>
        </EnumeratedItem>
        <EnumeratedItem CodedValue="EPICONDYLE">
          <Alias Context="nci:ExtCodeID" Name="C69300"/>
        </EnumeratedItem>
        <EnumeratedItem CodedValue="EPIDIDYMIS">
          <Alias Context="nci:ExtCodeID" Name="C12328"/>
        </EnumeratedItem>
        <EnumeratedItem CodedValue="EPIDURAL SPACE">
          <Alias Context="nci:ExtCodeID" Name="C41449"/>
        </EnumeratedItem>
        <EnumeratedItem CodedValue="EPIGASTRIC LYMPH NODE">
          <Alias Context="nci:ExtCodeID" Name="C139195"/>
        </EnumeratedItem>
        <EnumeratedItem CodedValue="EPIGASTRIC REGION">
          <Alias Context="nci:ExtCodeID" Name="C32525"/>
        </EnumeratedItem>
        <EnumeratedItem CodedValue="EPIGLOTTIS">
          <Alias Context="nci:ExtCodeID" Name="C12709"/>
        </EnumeratedItem>
        <EnumeratedItem CodedValue="EPITROCHLEAR LYMPH NODE">
          <Alias Context="nci:ExtCodeID" Name="C98182"/>
        </EnumeratedItem>
        <EnumeratedItem CodedValue="ESOPHAGEAL LYMPH NODE">
          <Alias Context="nci:ExtCodeID" Name="C139196"/>
        </EnumeratedItem>
        <EnumeratedItem CodedValue="ESOPHAGEAL MUCOSA">
          <Alias Context="nci:ExtCodeID" Name="C32538"/>
        </EnumeratedItem>
        <EnumeratedItem CodedValue="ESOPHAGUS">
          <Alias Context="nci:ExtCodeID" Name="C12389"/>
        </EnumeratedItem>
        <EnumeratedItem CodedValue="ESOPHAGUS, ABDOMINAL">
          <Alias Context="nci:ExtCodeID" Name="C12252"/>
        </EnumeratedItem>
        <EnumeratedItem CodedValue="ESOPHAGUS, CERVICAL">
          <Alias Context="nci:ExtCodeID" Name="C12250"/>
        </EnumeratedItem>
        <EnumeratedItem CodedValue="ESOPHAGUS, LOWER THIRD">
          <Alias Context="nci:ExtCodeID" Name="C12255"/>
        </EnumeratedItem>
        <EnumeratedItem CodedValue="ESOPHAGUS, MIDDLE THIRD">
          <Alias Context="nci:ExtCodeID" Name="C12254"/>
        </EnumeratedItem>
        <EnumeratedItem CodedValue="ESOPHAGUS, THORACIC">
          <Alias Context="nci:ExtCodeID" Name="C12251"/>
        </EnumeratedItem>
        <EnumeratedItem CodedValue="ESOPHAGUS, THORACIC LOWER">
          <Alias Context="nci:ExtCodeID" Name="C198294"/>
        </EnumeratedItem>
        <EnumeratedItem CodedValue="ESOPHAGUS, THORACIC MID">
          <Alias Context="nci:ExtCodeID" Name="C198295"/>
        </EnumeratedItem>
        <EnumeratedItem CodedValue="ESOPHAGUS, THORACIC UPPER">
          <Alias Context="nci:ExtCodeID" Name="C198296"/>
        </EnumeratedItem>
        <EnumeratedItem CodedValue="ESOPHAGUS, UPPER THIRD">
          <Alias Context="nci:ExtCodeID" Name="C12253"/>
        </EnumeratedItem>
        <EnumeratedItem CodedValue="ETHMOID BONE">
          <Alias Context="nci:ExtCodeID" Name="C12711"/>
        </EnumeratedItem>
        <EnumeratedItem CodedValue="ETHMOID SINUS">
          <Alias Context="nci:ExtCodeID" Name="C12276"/>
        </EnumeratedItem>
        <EnumeratedItem CodedValue="EXOCCIPITAL BONE">
          <Alias Context="nci:ExtCodeID" Name="C186110"/>
        </EnumeratedItem>
        <EnumeratedItem CodedValue="EXTENSOR CARPI RADIALIS MUSCLES">
          <Alias Context="nci:ExtCodeID" Name="C187833"/>
        </EnumeratedItem>
        <EnumeratedItem CodedValue="EXTENSOR CARPI ULNARIS MUSCLE">
          <Alias Context="nci:ExtCodeID" Name="C52914"/>
        </EnumeratedItem>
        <EnumeratedItem CodedValue="EXTENSOR DIGITI MINIMI MUSCLE">
          <Alias Context="nci:ExtCodeID" Name="C186111"/>
        </EnumeratedItem>
        <EnumeratedItem CodedValue="EXTENSOR DIGITORUM BREVIS MUSCLE">
          <Alias Context="nci:ExtCodeID" Name="C163514"/>
        </EnumeratedItem>
        <EnumeratedItem CodedValue="EXTENSOR DIGITORUM LONGUS MUSCLE">
          <Alias Context="nci:ExtCodeID" Name="C52918"/>
        </EnumeratedItem>
        <EnumeratedItem CodedValue="EXTENSOR DIGITORUM MUSCLE">
          <Alias Context="nci:ExtCodeID" Name="C52916"/>
        </EnumeratedItem>
        <EnumeratedItem CodedValue="EXTENSOR HALLUCIS BREVIS MUSCLE">
          <Alias Context="nci:ExtCodeID" Name="C163515"/>
        </EnumeratedItem>
        <EnumeratedItem CodedValue="EXTENSOR HALLUCIS LONGUS MUSCLE">
          <Alias Context="nci:ExtCodeID" Name="C186112"/>
        </EnumeratedItem>
        <EnumeratedItem CodedValue="EXTENSOR INDICIS PROPRIUS MUSCLE">
          <Alias Context="nci:ExtCodeID" Name="C186113"/>
        </EnumeratedItem>
        <EnumeratedItem CodedValue="EXTENSOR POLLICIS BREVIS MUSCLE">
          <Alias Context="nci:ExtCodeID" Name="C186114"/>
        </EnumeratedItem>
        <EnumeratedItem CodedValue="EXTENSOR POLLICIS LONGUS MUSCLE">
          <Alias Context="nci:ExtCodeID" Name="C186115"/>
        </EnumeratedItem>
        <EnumeratedItem CodedValue="EXTERNAL ACOUSTIC MEATUS">
          <Alias Context="nci:ExtCodeID" Name="C12498"/>
        </EnumeratedItem>
        <EnumeratedItem CodedValue="EXTERNAL ILIAC ARTERY">
          <Alias Context="nci:ExtCodeID" Name="C32558"/>
        </EnumeratedItem>
        <EnumeratedItem CodedValue="EXTERNAL ILIAC LYMPH NODE">
          <Alias Context="nci:ExtCodeID" Name="C88143"/>
        </EnumeratedItem>
        <EnumeratedItem CodedValue="EXTRAABDOMINAL LYMPH NODE">
          <Alias Context="nci:ExtCodeID" Name="C165584"/>
        </EnumeratedItem>
        <EnumeratedItem CodedValue="EXTRAHEPATIC BILE DUCT">
          <Alias Context="nci:ExtCodeID" Name="C32573"/>
        </EnumeratedItem>
        <EnumeratedItem CodedValue="EXTRAHEPATIC PERIHILAR BILE DUCT REGION">
          <Alias Context="nci:ExtCodeID" Name="C174319"/>
        </EnumeratedItem>
        <EnumeratedItem CodedValue="EXTRAOCULAR MUSCLE">
          <Alias Context="nci:ExtCodeID" Name="C33199"/>
        </EnumeratedItem>
        <EnumeratedItem CodedValue="EYE">
          <Alias Context="nci:ExtCodeID" Name="C12401"/>
        </EnumeratedItem>
        <EnumeratedItem CodedValue="EYE BULGE">
          <Alias Context="nci:ExtCodeID" Name="C176325"/>
        </EnumeratedItem>
        <EnumeratedItem CodedValue="EYE, ANTERIOR CHAMBER">
          <Alias Context="nci:ExtCodeID" Name="C12667"/>
        </EnumeratedItem>
        <EnumeratedItem CodedValue="EYE, ANTERIOR SEGMENT">
          <Alias Context="nci:ExtCodeID" Name="C12668"/>
        </EnumeratedItem>
        <EnumeratedItem CodedValue="EYE, VITREOUS CHAMBER">
          <Alias Context="nci:ExtCodeID" Name="C33885"/>
        </EnumeratedItem>
        <EnumeratedItem CodedValue="EYEBROW">
          <Alias Context="nci:ExtCodeID" Name="C32575"/>
        </EnumeratedItem>
        <EnumeratedItem CodedValue="EYELASH">
          <Alias Context="nci:ExtCodeID" Name="C32576"/>
        </EnumeratedItem>
        <EnumeratedItem CodedValue="EYELID">
          <Alias Context="nci:ExtCodeID" Name="C12713"/>
        </EnumeratedItem>
        <EnumeratedItem CodedValue="FACE">
          <Alias Context="nci:ExtCodeID" Name="C13071"/>
        </EnumeratedItem>
        <EnumeratedItem CodedValue="FACET JOINT">
          <Alias Context="nci:ExtCodeID" Name="C32577"/>
        </EnumeratedItem>
        <EnumeratedItem CodedValue="FACIAL BONE">
          <Alias Context="nci:ExtCodeID" Name="C63706"/>
        </EnumeratedItem>
        <EnumeratedItem CodedValue="FACIAL MUSCLE">
          <Alias Context="nci:ExtCodeID" Name="C13073"/>
        </EnumeratedItem>
        <EnumeratedItem CodedValue="FACIAL NERVE">
          <Alias Context="nci:ExtCodeID" Name="C12714"/>
        </EnumeratedItem>
        <EnumeratedItem CodedValue="FALCIFORM LIGAMENT">
          <Alias Context="nci:ExtCodeID" Name="C32582"/>
        </EnumeratedItem>
        <EnumeratedItem CodedValue="FALLOPIAN TUBE">
          <Alias Context="nci:ExtCodeID" Name="C12403"/>
        </EnumeratedItem>
        <EnumeratedItem CodedValue="FASCIA">
          <Alias Context="nci:ExtCodeID" Name="C13108"/>
        </EnumeratedItem>
        <EnumeratedItem CodedValue="FAT PAD">
          <Alias Context="nci:ExtCodeID" Name="C176326"/>
        </EnumeratedItem>
        <EnumeratedItem CodedValue="FAUCES">
          <Alias Context="nci:ExtCodeID" Name="C181454"/>
        </EnumeratedItem>
        <EnumeratedItem CodedValue="FEMALE GENITALIA">
          <Alias Context="nci:ExtCodeID" Name="C61600"/>
        </EnumeratedItem>
        <EnumeratedItem CodedValue="FEMALE REPRODUCTIVE SYSTEM">
          <Alias Context="nci:ExtCodeID" Name="C12402"/>
        </EnumeratedItem>
        <EnumeratedItem CodedValue="FEMORAL ARTERY">
          <Alias Context="nci:ExtCodeID" Name="C12715"/>
        </EnumeratedItem>
        <EnumeratedItem CodedValue="FEMORAL CONDYLE">
          <Alias Context="nci:ExtCodeID" Name="C114186"/>
        </EnumeratedItem>
        <EnumeratedItem CodedValue="FEMORAL HEAD">
          <Alias Context="nci:ExtCodeID" Name="C32718"/>
        </EnumeratedItem>
        <EnumeratedItem CodedValue="FEMORAL LYMPH NODE">
          <Alias Context="nci:ExtCodeID" Name="C98183"/>
        </EnumeratedItem>
        <EnumeratedItem CodedValue="FEMORAL NECK">
          <Alias Context="nci:ExtCodeID" Name="C61563"/>
        </EnumeratedItem>
        <EnumeratedItem CodedValue="FEMORAL VEIN">
          <Alias Context="nci:ExtCodeID" Name="C12716"/>
        </EnumeratedItem>
        <EnumeratedItem CodedValue="FEMORO-POPLITEAL PERIPHERAL ARTERY">
          <Alias Context="nci:ExtCodeID" Name="C116167"/>
        </EnumeratedItem>
        <EnumeratedItem CodedValue="FEMUR">
          <Alias Context="nci:ExtCodeID" Name="C12717"/>
        </EnumeratedItem>
        <EnumeratedItem CodedValue="FEMUR SHAFT">
          <Alias Context="nci:ExtCodeID" Name="C96209"/>
        </EnumeratedItem>
        <EnumeratedItem CodedValue="FIBULA">
          <Alias Context="nci:ExtCodeID" Name="C12718"/>
        </EnumeratedItem>
        <EnumeratedItem CodedValue="FIBULA SHAFT">
          <Alias Context="nci:ExtCodeID" Name="C120670"/>
        </EnumeratedItem>
        <EnumeratedItem CodedValue="FIBULAR VEIN">
          <Alias Context="nci:ExtCodeID" Name="C154772"/>
        </EnumeratedItem>
        <EnumeratedItem CodedValue="FINGER">
          <Alias Context="nci:ExtCodeID" Name="C32608"/>
        </EnumeratedItem>
        <EnumeratedItem CodedValue="FINGER EXTENSOR MUSCLES">
          <Alias Context="nci:ExtCodeID" Name="C163516"/>
        </EnumeratedItem>
        <EnumeratedItem CodedValue="FINGER EXTENSOR TENDONS">
          <Alias Context="nci:ExtCodeID" Name="C161384"/>
        </EnumeratedItem>
        <EnumeratedItem CodedValue="FINGER FLEXOR MUSCLES">
          <Alias Context="nci:ExtCodeID" Name="C163517"/>
        </EnumeratedItem>
        <EnumeratedItem CodedValue="FINGER FLEXOR TENDONS">
          <Alias Context="nci:ExtCodeID" Name="C161383"/>
        </EnumeratedItem>
        <EnumeratedItem CodedValue="FINGERNAIL">
          <Alias Context="nci:ExtCodeID" Name="C32609"/>
        </EnumeratedItem>
        <EnumeratedItem CodedValue="FINGERTIP">
          <Alias Context="nci:ExtCodeID" Name="C187834"/>
        </EnumeratedItem>
        <EnumeratedItem CodedValue="FIRST DIAGONAL BRANCH ARTERY">
          <Alias Context="nci:ExtCodeID" Name="C102297"/>
        </EnumeratedItem>
        <EnumeratedItem CodedValue="FIRST DORSAL INTEROSSEOUS MUSCLE OF THE FOOT">
          <Alias Context="nci:ExtCodeID" Name="C139197"/>
        </EnumeratedItem>
        <EnumeratedItem CodedValue="FIRST DORSAL INTEROSSEOUS MUSCLE OF THE HAND">
          <Alias Context="nci:ExtCodeID" Name="C139198"/>
        </EnumeratedItem>
        <EnumeratedItem CodedValue="FIRST LEFT POSTEROLATERAL BRANCH ARTERY">
          <Alias Context="nci:ExtCodeID" Name="C102298"/>
        </EnumeratedItem>
        <EnumeratedItem CodedValue="FIRST OBTUSE MARGINAL BRANCH ARTERY">
          <Alias Context="nci:ExtCodeID" Name="C102299"/>
        </EnumeratedItem>
        <EnumeratedItem CodedValue="FIRST RIGHT POSTEROLATERAL ARTERY">
          <Alias Context="nci:ExtCodeID" Name="C102300"/>
        </EnumeratedItem>
        <EnumeratedItem CodedValue="FLANK">
          <Alias Context="nci:ExtCodeID" Name="C93028"/>
        </EnumeratedItem>
        <EnumeratedItem CodedValue="FLEXOR CARPI RADIALIS MUSCLE">
          <Alias Context="nci:ExtCodeID" Name="C53155"/>
        </EnumeratedItem>
        <EnumeratedItem CodedValue="FLEXOR CARPI ULNARIS MUSCLE">
          <Alias Context="nci:ExtCodeID" Name="C53156"/>
        </EnumeratedItem>
        <EnumeratedItem CodedValue="FLEXOR DIGITORUM BREVIS MUSCLE">
          <Alias Context="nci:ExtCodeID" Name="C163518"/>
        </EnumeratedItem>
        <EnumeratedItem CodedValue="FLEXOR DIGITORUM LONGUS MUSCLE">
          <Alias Context="nci:ExtCodeID" Name="C52921"/>
        </EnumeratedItem>
        <EnumeratedItem CodedValue="FLEXOR DIGITORUM PROFUNDUS MUSCLE">
          <Alias Context="nci:ExtCodeID" Name="C52923"/>
        </EnumeratedItem>
        <EnumeratedItem CodedValue="FLEXOR DIGITORUM SUPERFICIALIS MUSCLE">
          <Alias Context="nci:ExtCodeID" Name="C150850"/>
        </EnumeratedItem>
        <EnumeratedItem CodedValue="FLEXOR HALLUCIS BREVIS MUSCLE">
          <Alias Context="nci:ExtCodeID" Name="C165998"/>
        </EnumeratedItem>
        <EnumeratedItem CodedValue="FLEXOR HALLUCIS LONGUS MUSCLE">
          <Alias Context="nci:ExtCodeID" Name="C52925"/>
        </EnumeratedItem>
        <EnumeratedItem CodedValue="FLEXOR POLLICIS BREVIS MUSCLE">
          <Alias Context="nci:ExtCodeID" Name="C186116"/>
        </EnumeratedItem>
        <EnumeratedItem CodedValue="FLEXOR POLLICIS LONGUS MUSCLE">
          <Alias Context="nci:ExtCodeID" Name="C150851"/>
        </EnumeratedItem>
        <EnumeratedItem CodedValue="FLOOR OF MOUTH">
          <Alias Context="nci:ExtCodeID" Name="C54187"/>
        </EnumeratedItem>
        <EnumeratedItem CodedValue="FONTANELLE">
          <Alias Context="nci:ExtCodeID" Name="C32621"/>
        </EnumeratedItem>
        <EnumeratedItem CodedValue="FOOT">
          <Alias Context="nci:ExtCodeID" Name="C32622"/>
        </EnumeratedItem>
        <EnumeratedItem CodedValue="FOOT DIGIT 1">
          <Alias Context="nci:ExtCodeID" Name="C52839"/>
        </EnumeratedItem>
        <EnumeratedItem CodedValue="FOOT DIGIT 2">
          <Alias Context="nci:ExtCodeID" Name="C52840"/>
        </EnumeratedItem>
        <EnumeratedItem CodedValue="FOOT DIGIT 3">
          <Alias Context="nci:ExtCodeID" Name="C52841"/>
        </EnumeratedItem>
        <EnumeratedItem CodedValue="FOOT DIGIT 4">
          <Alias Context="nci:ExtCodeID" Name="C52842"/>
        </EnumeratedItem>
        <EnumeratedItem CodedValue="FOOT DIGIT 5">
          <Alias Context="nci:ExtCodeID" Name="C52843"/>
        </EnumeratedItem>
        <EnumeratedItem CodedValue="FOOT PHALANX">
          <Alias Context="nci:ExtCodeID" Name="C52772"/>
        </EnumeratedItem>
        <EnumeratedItem CodedValue="FOREARM">
          <Alias Context="nci:ExtCodeID" Name="C32628"/>
        </EnumeratedItem>
        <EnumeratedItem CodedValue="FOREARM PRONATOR MUSCLES">
          <Alias Context="nci:ExtCodeID" Name="C186117"/>
        </EnumeratedItem>
        <EnumeratedItem CodedValue="FOREBRAIN">
          <Alias Context="nci:ExtCodeID" Name="C40185"/>
        </EnumeratedItem>
        <EnumeratedItem CodedValue="FOREHEAD">
          <Alias Context="nci:ExtCodeID" Name="C89803"/>
        </EnumeratedItem>
        <EnumeratedItem CodedValue="FORELIMB">
          <Alias Context="nci:ExtCodeID" Name="C176321"/>
        </EnumeratedItem>
        <EnumeratedItem CodedValue="FOREPAW PHALANX">
          <Alias Context="nci:ExtCodeID" Name="C186118"/>
        </EnumeratedItem>
        <EnumeratedItem CodedValue="FORESKIN">
          <Alias Context="nci:ExtCodeID" Name="C33049"/>
        </EnumeratedItem>
        <EnumeratedItem CodedValue="FOVEA">
          <Alias Context="nci:ExtCodeID" Name="C26463"/>
        </EnumeratedItem>
        <EnumeratedItem CodedValue="FRONTAL BONE">
          <Alias Context="nci:ExtCodeID" Name="C32635"/>
        </EnumeratedItem>
        <EnumeratedItem CodedValue="FRONTAL LOBE">
          <Alias Context="nci:ExtCodeID" Name="C12352"/>
        </EnumeratedItem>
        <EnumeratedItem CodedValue="FRONTAL SINUS">
          <Alias Context="nci:ExtCodeID" Name="C12277"/>
        </EnumeratedItem>
        <EnumeratedItem CodedValue="FRONTALIS MUSCLE">
          <Alias Context="nci:ExtCodeID" Name="C186119"/>
        </EnumeratedItem>
        <EnumeratedItem CodedValue="FUNDUS OF THE EYE">
          <Alias Context="nci:ExtCodeID" Name="C135172"/>
        </EnumeratedItem>
        <EnumeratedItem CodedValue="FUNDUS OF THE STOMACH">
          <Alias Context="nci:ExtCodeID" Name="C12257"/>
        </EnumeratedItem>
        <EnumeratedItem CodedValue="FUNDUS UTERI">
          <Alias Context="nci:ExtCodeID" Name="C12315"/>
        </EnumeratedItem>
        <EnumeratedItem CodedValue="GALLBLADDER">
          <Alias Context="nci:ExtCodeID" Name="C12377"/>
        </EnumeratedItem>
        <EnumeratedItem CodedValue="GANGLION">
          <Alias Context="nci:ExtCodeID" Name="C12719"/>
        </EnumeratedItem>
        <EnumeratedItem CodedValue="GASTRIC CARDIA">
          <Alias Context="nci:ExtCodeID" Name="C12256"/>
        </EnumeratedItem>
        <EnumeratedItem CodedValue="GASTRIC CURVATURE LYMPH NODE">
          <Alias Context="nci:ExtCodeID" Name="C154773"/>
        </EnumeratedItem>
        <EnumeratedItem CodedValue="GASTRIC MUCOSA">
          <Alias Context="nci:ExtCodeID" Name="C32656"/>
        </EnumeratedItem>
        <EnumeratedItem CodedValue="GASTROCNEMIUS MUSCLE">
          <Alias Context="nci:ExtCodeID" Name="C32666"/>
        </EnumeratedItem>
        <EnumeratedItem CodedValue="GASTROCNEMIUS MUSCLE, LATERAL HEAD">
          <Alias Context="nci:ExtCodeID" Name="C163519"/>
        </EnumeratedItem>
        <EnumeratedItem CodedValue="GASTROCNEMIUS MUSCLE, MEDIAL HEAD">
          <Alias Context="nci:ExtCodeID" Name="C163520"/>
        </EnumeratedItem>
        <EnumeratedItem CodedValue="GASTROESOPHAGEAL JUNCTION">
          <Alias Context="nci:ExtCodeID" Name="C32668"/>
        </EnumeratedItem>
        <EnumeratedItem CodedValue="GASTROINTESTINAL SYSTEM">
          <Alias Context="nci:ExtCodeID" Name="C12378"/>
        </EnumeratedItem>
        <EnumeratedItem CodedValue="GASTROINTESTINAL TRACT">
          <Alias Context="nci:ExtCodeID" Name="C34082"/>
        </EnumeratedItem>
        <EnumeratedItem CodedValue="GASTROINTESTINAL TRACT, LOWER">
          <Alias Context="nci:ExtCodeID" Name="C33010"/>
        </EnumeratedItem>
        <EnumeratedItem CodedValue="GASTROINTESTINAL TRACT, LOWER, WALL">
          <Alias Context="nci:ExtCodeID" Name="C176241"/>
        </EnumeratedItem>
        <EnumeratedItem CodedValue="GASTROINTESTINAL TRACT, UPPER">
          <Alias Context="nci:ExtCodeID" Name="C33837"/>
        </EnumeratedItem>
        <EnumeratedItem CodedValue="GASTROINTESTINAL TRACT, UPPER, WALL">
          <Alias Context="nci:ExtCodeID" Name="C176314"/>
        </EnumeratedItem>
        <EnumeratedItem CodedValue="GASTROINTESTINAL TRACT, WALL">
          <Alias Context="nci:ExtCodeID" Name="C176233"/>
        </EnumeratedItem>
        <EnumeratedItem CodedValue="GENIOGLOSSUS MUSCLE">
          <Alias Context="nci:ExtCodeID" Name="C52928"/>
        </EnumeratedItem>
        <EnumeratedItem CodedValue="GENITAL TUBERCLE">
          <Alias Context="nci:ExtCodeID" Name="C176324"/>
        </EnumeratedItem>
        <EnumeratedItem CodedValue="GENITALIA">
          <Alias Context="nci:ExtCodeID" Name="C25177"/>
        </EnumeratedItem>
        <EnumeratedItem CodedValue="GENITOURINARY SYSTEM">
          <Alias Context="nci:ExtCodeID" Name="C12810"/>
        </EnumeratedItem>
        <EnumeratedItem CodedValue="GINGIVA">
          <Alias Context="nci:ExtCodeID" Name="C32677"/>
        </EnumeratedItem>
        <EnumeratedItem CodedValue="GINGIVAL MUCOSA">
          <Alias Context="nci:ExtCodeID" Name="C139199"/>
        </EnumeratedItem>
        <EnumeratedItem CodedValue="GLENOID FOSSA">
          <Alias Context="nci:ExtCodeID" Name="C32682"/>
        </EnumeratedItem>
        <EnumeratedItem CodedValue="GLOBUS PALLIDUS">
          <Alias Context="nci:ExtCodeID" Name="C12449"/>
        </EnumeratedItem>
        <EnumeratedItem CodedValue="GLOMERULUS">
          <Alias Context="nci:ExtCodeID" Name="C13250"/>
        </EnumeratedItem>
        <EnumeratedItem CodedValue="GLOSSOPHARYNGEAL NERVE">
          <Alias Context="nci:ExtCodeID" Name="C12723"/>
        </EnumeratedItem>
        <EnumeratedItem CodedValue="GLOTTIS">
          <Alias Context="nci:ExtCodeID" Name="C12724"/>
        </EnumeratedItem>
        <EnumeratedItem CodedValue="GLOTTIS, ANTERIOR COMMISSURE">
          <Alias Context="nci:ExtCodeID" Name="C128630"/>
        </EnumeratedItem>
        <EnumeratedItem CodedValue="GLOTTIS, POSTERIOR COMMISSURE">
          <Alias Context="nci:ExtCodeID" Name="C164282"/>
        </EnumeratedItem>
        <EnumeratedItem CodedValue="GLUTEAL MUSCLE">
          <Alias Context="nci:ExtCodeID" Name="C78205"/>
        </EnumeratedItem>
        <EnumeratedItem CodedValue="GLUTEUS MAXIMUS">
          <Alias Context="nci:ExtCodeID" Name="C52560"/>
        </EnumeratedItem>
        <EnumeratedItem CodedValue="GLUTEUS MEDIUS">
          <Alias Context="nci:ExtCodeID" Name="C52933"/>
        </EnumeratedItem>
        <EnumeratedItem CodedValue="GONAD">
          <Alias Context="nci:ExtCodeID" Name="C12725"/>
        </EnumeratedItem>
        <EnumeratedItem CodedValue="GRACILIS MUSCLE">
          <Alias Context="nci:ExtCodeID" Name="C52935"/>
        </EnumeratedItem>
        <EnumeratedItem CodedValue="GREAT SAPHENOUS VEIN">
          <Alias Context="nci:ExtCodeID" Name="C33004"/>
        </EnumeratedItem>
        <EnumeratedItem CodedValue="GREAT TROCHANTER">
          <Alias Context="nci:ExtCodeID" Name="C32698"/>
        </EnumeratedItem>
        <EnumeratedItem CodedValue="GREAT VESSELS">
          <Alias Context="nci:ExtCodeID" Name="C102955"/>
        </EnumeratedItem>
        <EnumeratedItem CodedValue="GREATER CURVATURE OF THE STOMACH">
          <Alias Context="nci:ExtCodeID" Name="C12262"/>
        </EnumeratedItem>
        <EnumeratedItem CodedValue="GUT-ASSOCIATED LYMPHOID TISSUE">
          <Alias Context="nci:ExtCodeID" Name="C12936"/>
        </EnumeratedItem>
        <EnumeratedItem CodedValue="HAIR">
          <Alias Context="nci:ExtCodeID" Name="C32705"/>
        </EnumeratedItem>
        <EnumeratedItem CodedValue="HAIR BULB">
          <Alias Context="nci:ExtCodeID" Name="C32706"/>
        </EnumeratedItem>
        <EnumeratedItem CodedValue="HAIR FOLLICLE">
          <Alias Context="nci:ExtCodeID" Name="C13317"/>
        </EnumeratedItem>
        <EnumeratedItem CodedValue="HAIR ROOT">
          <Alias Context="nci:ExtCodeID" Name="C32711"/>
        </EnumeratedItem>
        <EnumeratedItem CodedValue="HAIR SHAFT">
          <Alias Context="nci:ExtCodeID" Name="C33543"/>
        </EnumeratedItem>
        <EnumeratedItem CodedValue="HAMATE BONE">
          <Alias Context="nci:ExtCodeID" Name="C12860"/>
        </EnumeratedItem>
        <EnumeratedItem CodedValue="HAMSTRING MUSCLE">
          <Alias Context="nci:ExtCodeID" Name="C53042"/>
        </EnumeratedItem>
        <EnumeratedItem CodedValue="HAND">
          <Alias Context="nci:ExtCodeID" Name="C32712"/>
        </EnumeratedItem>
        <EnumeratedItem CodedValue="HAND DIGIT 1">
          <Alias Context="nci:ExtCodeID" Name="C52834"/>
        </EnumeratedItem>
        <EnumeratedItem CodedValue="HAND DIGIT 1 ARTERY">
          <Alias Context="nci:ExtCodeID" Name="C178000"/>
        </EnumeratedItem>
        <EnumeratedItem CodedValue="HAND DIGIT 2">
          <Alias Context="nci:ExtCodeID" Name="C52835"/>
        </EnumeratedItem>
        <EnumeratedItem CodedValue="HAND DIGIT 2 ARTERY">
          <Alias Context="nci:ExtCodeID" Name="C177996"/>
        </EnumeratedItem>
        <EnumeratedItem CodedValue="HAND DIGIT 3">
          <Alias Context="nci:ExtCodeID" Name="C52836"/>
        </EnumeratedItem>
        <EnumeratedItem CodedValue="HAND DIGIT 3 ARTERY">
          <Alias Context="nci:ExtCodeID" Name="C177998"/>
        </EnumeratedItem>
        <EnumeratedItem CodedValue="HAND DIGIT 4">
          <Alias Context="nci:ExtCodeID" Name="C52837"/>
        </EnumeratedItem>
        <EnumeratedItem CodedValue="HAND DIGIT 4 ARTERY">
          <Alias Context="nci:ExtCodeID" Name="C177999"/>
        </EnumeratedItem>
        <EnumeratedItem CodedValue="HAND DIGIT 5">
          <Alias Context="nci:ExtCodeID" Name="C52838"/>
        </EnumeratedItem>
        <EnumeratedItem CodedValue="HAND DIGIT 5 ARTERY">
          <Alias Context="nci:ExtCodeID" Name="C177997"/>
        </EnumeratedItem>
        <EnumeratedItem CodedValue="HAND PHALANX">
          <Alias Context="nci:ExtCodeID" Name="C52771"/>
        </EnumeratedItem>
        <EnumeratedItem CodedValue="HARD PALATE">
          <Alias Context="nci:ExtCodeID" Name="C12230"/>
        </EnumeratedItem>
        <EnumeratedItem CodedValue="HEAD">
          <Alias Context="nci:ExtCodeID" Name="C12419"/>
        </EnumeratedItem>
        <EnumeratedItem CodedValue="HEAD AND NECK">
          <Alias Context="nci:ExtCodeID" Name="C12418"/>
        </EnumeratedItem>
        <EnumeratedItem CodedValue="HEAD OF THE FIBULA">
          <Alias Context="nci:ExtCodeID" Name="C32719"/>
        </EnumeratedItem>
        <EnumeratedItem CodedValue="HEAD OF THE HUMERUS">
          <Alias Context="nci:ExtCodeID" Name="C32720"/>
        </EnumeratedItem>
        <EnumeratedItem CodedValue="HEART">
          <Alias Context="nci:ExtCodeID" Name="C12727"/>
        </EnumeratedItem>
        <EnumeratedItem CodedValue="HEART, APEX">
          <Alias Context="nci:ExtCodeID" Name="C32126"/>
        </EnumeratedItem>
        <EnumeratedItem CodedValue="HEART, ATRIUM">
          <Alias Context="nci:ExtCodeID" Name="C12728"/>
        </EnumeratedItem>
        <EnumeratedItem CodedValue="HEART, BASE">
          <Alias Context="nci:ExtCodeID" Name="C48589"/>
        </EnumeratedItem>
        <EnumeratedItem CodedValue="HEART, FORAMEN OVALE">
          <Alias Context="nci:ExtCodeID" Name="C34241"/>
        </EnumeratedItem>
        <EnumeratedItem CodedValue="HEART, LEFT ATRIAL APPENDAGE">
          <Alias Context="nci:ExtCodeID" Name="C127643"/>
        </EnumeratedItem>
        <EnumeratedItem CodedValue="HEART, LEFT ATRIUM">
          <Alias Context="nci:ExtCodeID" Name="C12869"/>
        </EnumeratedItem>
        <EnumeratedItem CodedValue="HEART, LEFT VENTRICLE">
          <Alias Context="nci:ExtCodeID" Name="C12871"/>
        </EnumeratedItem>
        <EnumeratedItem CodedValue="HEART, LEFT VENTRICULAR OUTFLOW TRACT">
          <Alias Context="nci:ExtCodeID" Name="C127644"/>
        </EnumeratedItem>
        <EnumeratedItem CodedValue="HEART, LEFT VENTRICULAR WALL">
          <Alias Context="nci:ExtCodeID" Name="C127645"/>
        </EnumeratedItem>
        <EnumeratedItem CodedValue="HEART, RIGHT ATRIAL APPENDAGE">
          <Alias Context="nci:ExtCodeID" Name="C127646"/>
        </EnumeratedItem>
        <EnumeratedItem CodedValue="HEART, RIGHT ATRIUM">
          <Alias Context="nci:ExtCodeID" Name="C12868"/>
        </EnumeratedItem>
        <EnumeratedItem CodedValue="HEART, RIGHT VENTRICLE">
          <Alias Context="nci:ExtCodeID" Name="C12870"/>
        </EnumeratedItem>
        <EnumeratedItem CodedValue="HEART, RIGHT VENTRICLE, BASE">
          <Alias Context="nci:ExtCodeID" Name="C201433"/>
        </EnumeratedItem>
        <EnumeratedItem CodedValue="HEART, RIGHT VENTRICLE, MID-LEVEL">
          <Alias Context="nci:ExtCodeID" Name="C201434"/>
        </EnumeratedItem>
        <EnumeratedItem CodedValue="HEART, RIGHT VENTRICULAR FREE WALL">
          <Alias Context="nci:ExtCodeID" Name="C127647"/>
        </EnumeratedItem>
        <EnumeratedItem CodedValue="HEART, RIGHT VENTRICULAR OUTFLOW TRACT">
          <Alias Context="nci:ExtCodeID" Name="C127648"/>
        </EnumeratedItem>
        <EnumeratedItem CodedValue="HEART, RIGHT VENTRICULAR WALL">
          <Alias Context="nci:ExtCodeID" Name="C127649"/>
        </EnumeratedItem>
        <EnumeratedItem CodedValue="HEART, SEPTUM">
          <Alias Context="nci:ExtCodeID" Name="C49485"/>
        </EnumeratedItem>
        <EnumeratedItem CodedValue="HEART, VENTRICLE">
          <Alias Context="nci:ExtCodeID" Name="C12730"/>
        </EnumeratedItem>
        <EnumeratedItem CodedValue="HEART, VENTRICULAR CHAMBER">
          <Alias Context="nci:ExtCodeID" Name="C186120"/>
        </EnumeratedItem>
        <EnumeratedItem CodedValue="HEART, VENTRICULAR WALL">
          <Alias Context="nci:ExtCodeID" Name="C119295"/>
        </EnumeratedItem>
        <EnumeratedItem CodedValue="HEEL OF THE FOOT">
          <Alias Context="nci:ExtCodeID" Name="C161381"/>
        </EnumeratedItem>
        <EnumeratedItem CodedValue="HEEL OF THE HAND">
          <Alias Context="nci:ExtCodeID" Name="C161382"/>
        </EnumeratedItem>
        <EnumeratedItem CodedValue="HEPATIC ARTERY">
          <Alias Context="nci:ExtCodeID" Name="C32729"/>
        </EnumeratedItem>
        <EnumeratedItem CodedValue="HEPATIC LYMPH NODE">
          <Alias Context="nci:ExtCodeID" Name="C77640"/>
        </EnumeratedItem>
        <EnumeratedItem CodedValue="HEPATIC VEIN">
          <Alias Context="nci:ExtCodeID" Name="C32736"/>
        </EnumeratedItem>
        <EnumeratedItem CodedValue="HEPATOBILIARY SYSTEM">
          <Alias Context="nci:ExtCodeID" Name="C43612"/>
        </EnumeratedItem>
        <EnumeratedItem CodedValue="HILAR">
          <Alias Context="nci:ExtCodeID" Name="C25724"/>
        </EnumeratedItem>
        <EnumeratedItem CodedValue="HILAR LYMPH NODE">
          <Alias Context="nci:ExtCodeID" Name="C98187"/>
        </EnumeratedItem>
        <EnumeratedItem CodedValue="HINDLIMB">
          <Alias Context="nci:ExtCodeID" Name="C77625"/>
        </EnumeratedItem>
        <EnumeratedItem CodedValue="HINDPAW PHALANX">
          <Alias Context="nci:ExtCodeID" Name="C186121"/>
        </EnumeratedItem>
        <EnumeratedItem CodedValue="HIP">
          <Alias Context="nci:ExtCodeID" Name="C64193"/>
        </EnumeratedItem>
        <EnumeratedItem CodedValue="HIP ADDUCTORS">
          <Alias Context="nci:ExtCodeID" Name="C53039"/>
        </EnumeratedItem>
        <EnumeratedItem CodedValue="HIP FLEXOR MUSCLES">
          <Alias Context="nci:ExtCodeID" Name="C186122"/>
        </EnumeratedItem>
        <EnumeratedItem CodedValue="HIP JOINT">
          <Alias Context="nci:ExtCodeID" Name="C32742"/>
        </EnumeratedItem>
        <EnumeratedItem CodedValue="HIPPOCAMPUS">
          <Alias Context="nci:ExtCodeID" Name="C12444"/>
        </EnumeratedItem>
        <EnumeratedItem CodedValue="HUMERAL EPICONDYLE">
          <Alias Context="nci:ExtCodeID" Name="C114187"/>
        </EnumeratedItem>
        <EnumeratedItem CodedValue="HUMERUS">
          <Alias Context="nci:ExtCodeID" Name="C12731"/>
        </EnumeratedItem>
        <EnumeratedItem CodedValue="HUMERUS SHAFT">
          <Alias Context="nci:ExtCodeID" Name="C120671"/>
        </EnumeratedItem>
        <EnumeratedItem CodedValue="HYMENAL RING">
          <Alias Context="nci:ExtCodeID" Name="C165999"/>
        </EnumeratedItem>
        <EnumeratedItem CodedValue="HYOID BONE">
          <Alias Context="nci:ExtCodeID" Name="C32752"/>
        </EnumeratedItem>
        <EnumeratedItem CodedValue="HYPOGLOSSAL NERVE">
          <Alias Context="nci:ExtCodeID" Name="C12732"/>
        </EnumeratedItem>
        <EnumeratedItem CodedValue="HYPOPHARYNX">
          <Alias Context="nci:ExtCodeID" Name="C12246"/>
        </EnumeratedItem>
        <EnumeratedItem CodedValue="HYPOTHALAMUS">
          <Alias Context="nci:ExtCodeID" Name="C12458"/>
        </EnumeratedItem>
        <EnumeratedItem CodedValue="ILEOCECAL JUNCTION">
          <Alias Context="nci:ExtCodeID" Name="C178001"/>
        </EnumeratedItem>
        <EnumeratedItem CodedValue="ILEUM">
          <Alias Context="nci:ExtCodeID" Name="C12387"/>
        </EnumeratedItem>
        <EnumeratedItem CodedValue="ILEUM LYMPH NODE">
          <Alias Context="nci:ExtCodeID" Name="C176318"/>
        </EnumeratedItem>
        <EnumeratedItem CodedValue="ILEUM WALL">
          <Alias Context="nci:ExtCodeID" Name="C176316"/>
        </EnumeratedItem>
        <EnumeratedItem CodedValue="ILEUM, TERMINAL">
          <Alias Context="nci:ExtCodeID" Name="C33757"/>
        </EnumeratedItem>
        <EnumeratedItem CodedValue="ILIAC CREST">
          <Alias Context="nci:ExtCodeID" Name="C103818"/>
        </EnumeratedItem>
        <EnumeratedItem CodedValue="ILIAC FOSSA">
          <Alias Context="nci:ExtCodeID" Name="C103454"/>
        </EnumeratedItem>
        <EnumeratedItem CodedValue="ILIAC LYMPH NODE">
          <Alias Context="nci:ExtCodeID" Name="C32761"/>
        </EnumeratedItem>
        <EnumeratedItem CodedValue="ILIAC VEIN">
          <Alias Context="nci:ExtCodeID" Name="C12734"/>
        </EnumeratedItem>
        <EnumeratedItem CodedValue="ILIOPSOAS MUSCLE">
          <Alias Context="nci:ExtCodeID" Name="C32764"/>
        </EnumeratedItem>
        <EnumeratedItem CodedValue="ILIOTIBIAL BAND">
          <Alias Context="nci:ExtCodeID" Name="C139207"/>
        </EnumeratedItem>
        <EnumeratedItem CodedValue="ILIUM">
          <Alias Context="nci:ExtCodeID" Name="C32765"/>
        </EnumeratedItem>
        <EnumeratedItem CodedValue="INCISOR">
          <Alias Context="nci:ExtCodeID" Name="C32769"/>
        </EnumeratedItem>
        <EnumeratedItem CodedValue="INCUS">
          <Alias Context="nci:ExtCodeID" Name="C32770"/>
        </EnumeratedItem>
        <EnumeratedItem CodedValue="INFERIOR MEDIASTINAL LYMPH NODE">
          <Alias Context="nci:ExtCodeID" Name="C113695"/>
        </EnumeratedItem>
        <EnumeratedItem CodedValue="INFERIOR PUBIC RAMUS">
          <Alias Context="nci:ExtCodeID" Name="C132392"/>
        </EnumeratedItem>
        <EnumeratedItem CodedValue="INFERIOR TEMPORAL GYRUS">
          <Alias Context="nci:ExtCodeID" Name="C32791"/>
        </EnumeratedItem>
        <EnumeratedItem CodedValue="INFERIOR VENA CAVA">
          <Alias Context="nci:ExtCodeID" Name="C12815"/>
        </EnumeratedItem>
        <EnumeratedItem CodedValue="INFRACLAVICULAR LYMPH NODE">
          <Alias Context="nci:ExtCodeID" Name="C63705"/>
        </EnumeratedItem>
        <EnumeratedItem CodedValue="INFRARENAL AORTA">
          <Alias Context="nci:ExtCodeID" Name="C116179"/>
        </EnumeratedItem>
        <EnumeratedItem CodedValue="INFRASPINATUS MUSCLE">
          <Alias Context="nci:ExtCodeID" Name="C32797"/>
        </EnumeratedItem>
        <EnumeratedItem CodedValue="INFRATENTORIAL BRAIN">
          <Alias Context="nci:ExtCodeID" Name="C12509"/>
        </EnumeratedItem>
        <EnumeratedItem CodedValue="INGUINAL LYMPH NODE">
          <Alias Context="nci:ExtCodeID" Name="C32801"/>
        </EnumeratedItem>
        <EnumeratedItem CodedValue="INGUINAL REGION">
          <Alias Context="nci:ExtCodeID" Name="C12726"/>
        </EnumeratedItem>
        <EnumeratedItem CodedValue="INSULAR CORTEX">
          <Alias Context="nci:ExtCodeID" Name="C32278"/>
        </EnumeratedItem>
        <EnumeratedItem CodedValue="INTERATRIAL SEPTUM">
          <Alias Context="nci:ExtCodeID" Name="C32818"/>
        </EnumeratedItem>
        <EnumeratedItem CodedValue="INTERNAL ILIAC ARTERY">
          <Alias Context="nci:ExtCodeID" Name="C32845"/>
        </EnumeratedItem>
        <EnumeratedItem CodedValue="INTERNAL ILIAC LYMPH NODE">
          <Alias Context="nci:ExtCodeID" Name="C88142"/>
        </EnumeratedItem>
        <EnumeratedItem CodedValue="INTERNAL MAMMARY ARTERY">
          <Alias Context="nci:ExtCodeID" Name="C52941"/>
        </EnumeratedItem>
        <EnumeratedItem CodedValue="INTERNAL MAMMARY LYMPH NODE">
          <Alias Context="nci:ExtCodeID" Name="C32853"/>
        </EnumeratedItem>
        <EnumeratedItem CodedValue="INTERPARIETAL BONE">
          <Alias Context="nci:ExtCodeID" Name="C186123"/>
        </EnumeratedItem>
        <EnumeratedItem CodedValue="INTERPHALANGEAL JOINT 1">
          <Alias Context="nci:ExtCodeID" Name="C102301"/>
        </EnumeratedItem>
        <EnumeratedItem CodedValue="INTERPHALANGEAL JOINT 1 OF THE FOOT">
          <Alias Context="nci:ExtCodeID" Name="C114200"/>
        </EnumeratedItem>
        <EnumeratedItem CodedValue="INTERPHALANGEAL JOINT 2">
          <Alias Context="nci:ExtCodeID" Name="C102302"/>
        </EnumeratedItem>
        <EnumeratedItem CodedValue="INTERPHALANGEAL JOINT 2 OF THE FOOT">
          <Alias Context="nci:ExtCodeID" Name="C114201"/>
        </EnumeratedItem>
        <EnumeratedItem CodedValue="INTERPHALANGEAL JOINT 2 OF THE HAND">
          <Alias Context="nci:ExtCodeID" Name="C114190"/>
        </EnumeratedItem>
        <EnumeratedItem CodedValue="INTERPHALANGEAL JOINT 3">
          <Alias Context="nci:ExtCodeID" Name="C102303"/>
        </EnumeratedItem>
        <EnumeratedItem CodedValue="INTERPHALANGEAL JOINT 3 OF THE FOOT">
          <Alias Context="nci:ExtCodeID" Name="C114202"/>
        </EnumeratedItem>
        <EnumeratedItem CodedValue="INTERPHALANGEAL JOINT 3 OF THE HAND">
          <Alias Context="nci:ExtCodeID" Name="C114191"/>
        </EnumeratedItem>
        <EnumeratedItem CodedValue="INTERPHALANGEAL JOINT 4">
          <Alias Context="nci:ExtCodeID" Name="C102304"/>
        </EnumeratedItem>
        <EnumeratedItem CodedValue="INTERPHALANGEAL JOINT 4 OF THE FOOT">
          <Alias Context="nci:ExtCodeID" Name="C114203"/>
        </EnumeratedItem>
        <EnumeratedItem CodedValue="INTERPHALANGEAL JOINT 4 OF THE HAND">
          <Alias Context="nci:ExtCodeID" Name="C114192"/>
        </EnumeratedItem>
        <EnumeratedItem CodedValue="INTERPHALANGEAL JOINT 5">
          <Alias Context="nci:ExtCodeID" Name="C102305"/>
        </EnumeratedItem>
        <EnumeratedItem CodedValue="INTERPHALANGEAL JOINT 5 OF THE FOOT">
          <Alias Context="nci:ExtCodeID" Name="C114204"/>
        </EnumeratedItem>
        <EnumeratedItem CodedValue="INTERPHALANGEAL JOINT 5 OF THE HAND">
          <Alias Context="nci:ExtCodeID" Name="C114193"/>
        </EnumeratedItem>
        <EnumeratedItem CodedValue="INTERPHALANGEAL JOINT OF THE HAND">
          <Alias Context="nci:ExtCodeID" Name="C32868"/>
        </EnumeratedItem>
        <EnumeratedItem CodedValue="INTERPHALANGEAL OF THE FOOT">
          <Alias Context="nci:ExtCodeID" Name="C32867"/>
        </EnumeratedItem>
        <EnumeratedItem CodedValue="INTERPHALANGEAL THUMB JOINT">
          <Alias Context="nci:ExtCodeID" Name="C102306"/>
        </EnumeratedItem>
        <EnumeratedItem CodedValue="INTERTROCHANTERIC REGION">
          <Alias Context="nci:ExtCodeID" Name="C120672"/>
        </EnumeratedItem>
        <EnumeratedItem CodedValue="INTERVENTRICULAR SEPTUM">
          <Alias Context="nci:ExtCodeID" Name="C32874"/>
        </EnumeratedItem>
        <EnumeratedItem CodedValue="INTESTINAL WALL">
          <Alias Context="nci:ExtCodeID" Name="C49478"/>
        </EnumeratedItem>
        <EnumeratedItem CodedValue="INTESTINE">
          <Alias Context="nci:ExtCodeID" Name="C12736"/>
        </EnumeratedItem>
        <EnumeratedItem CodedValue="INTRAHEPATIC BILE DUCT">
          <Alias Context="nci:ExtCodeID" Name="C12677"/>
        </EnumeratedItem>
        <EnumeratedItem CodedValue="INTRAHEPATIC LARGE BILE DUCT">
          <Alias Context="nci:ExtCodeID" Name="C96803"/>
        </EnumeratedItem>
        <EnumeratedItem CodedValue="INTRATHORACIC LYMPH NODE">
          <Alias Context="nci:ExtCodeID" Name="C12359"/>
        </EnumeratedItem>
        <EnumeratedItem CodedValue="IRIS">
          <Alias Context="nci:ExtCodeID" Name="C12737"/>
        </EnumeratedItem>
        <EnumeratedItem CodedValue="ISCHIAL TUBEROSITY">
          <Alias Context="nci:ExtCodeID" Name="C105446"/>
        </EnumeratedItem>
        <EnumeratedItem CodedValue="ISCHIORECTAL FOSSA">
          <Alias Context="nci:ExtCodeID" Name="C103455"/>
        </EnumeratedItem>
        <EnumeratedItem CodedValue="ISCHIUM">
          <Alias Context="nci:ExtCodeID" Name="C32884"/>
        </EnumeratedItem>
        <EnumeratedItem CodedValue="JAW">
          <Alias Context="nci:ExtCodeID" Name="C48821"/>
        </EnumeratedItem>
        <EnumeratedItem CodedValue="JEJUNUM">
          <Alias Context="nci:ExtCodeID" Name="C12388"/>
        </EnumeratedItem>
        <EnumeratedItem CodedValue="JOINT">
          <Alias Context="nci:ExtCodeID" Name="C13044"/>
        </EnumeratedItem>
        <EnumeratedItem CodedValue="JUGULAR VEIN">
          <Alias Context="nci:ExtCodeID" Name="C12738"/>
        </EnumeratedItem>
        <EnumeratedItem CodedValue="KIDNEY">
          <Alias Context="nci:ExtCodeID" Name="C12415"/>
        </EnumeratedItem>
        <EnumeratedItem CodedValue="KIDNEY INTERPOLAR REGION">
          <Alias Context="nci:ExtCodeID" Name="C186124"/>
        </EnumeratedItem>
        <EnumeratedItem CodedValue="KIDNEY, CORTEX">
          <Alias Context="nci:ExtCodeID" Name="C12739"/>
        </EnumeratedItem>
        <EnumeratedItem CodedValue="KIDNEY, HILUM">
          <Alias Context="nci:ExtCodeID" Name="C32740"/>
        </EnumeratedItem>
        <EnumeratedItem CodedValue="KIDNEY, LOWER POLE">
          <Alias Context="nci:ExtCodeID" Name="C93180"/>
        </EnumeratedItem>
        <EnumeratedItem CodedValue="KIDNEY, MEDULLA">
          <Alias Context="nci:ExtCodeID" Name="C12740"/>
        </EnumeratedItem>
        <EnumeratedItem CodedValue="KIDNEY, UPPER POLE">
          <Alias Context="nci:ExtCodeID" Name="C93179"/>
        </EnumeratedItem>
        <EnumeratedItem CodedValue="KNEE FLEXOR MUSCLES">
          <Alias Context="nci:ExtCodeID" Name="C186125"/>
