{"_links":{"parentClass":{"href":"/mdr/sdtmig/3-4/classes/Findings","title":"Findings","type":"Class"},"parentProduct":{"href":"/mdr/sdtmig/3-4","title":"Study Data Tabulation Model Implementation Guide: Human Clinical Trials","type":"Implementation Guide"},"priorVersion":{"href":"/mdr/sdtmig/3-3/datasets/RS","title":"Disease Response and Clin Classification","type":"SDTM Dataset"},"self":{"href":"/mdr/sdtmig/3-4/datasets/RS","title":"Disease Response and Clin Classification","type":"SDTM Dataset"}},"datasetStructure":"One record per response assessment or clinical classification assessment per time point per visit per subject per assessor per medical evaluator","datasetVariables":[{"_links":{"modelClassVariable":{"href":"/mdr/sdtm/2-0/classes/GeneralObservations/variables/STUDYID","title":"Study Identifier","type":"SDTM Class Variable"},"parentDataset":{"href":"/mdr/sdtmig/3-4/datasets/RS","title":"Disease Response and Clin Classification","type":"SDTM Dataset"},"parentProduct":{"href":"/mdr/sdtmig/3-4","title":"Study Data Tabulation Model Implementation Guide: Human Clinical Trials","type":"Implementation Guide"},"priorVersion":{"href":"/mdr/sdtmig/3-3/datasets/RS/variables/STUDYID","title":"Study Identifier","type":"SDTM Dataset Variable"},"rootItem":{"href":"/mdr/root/sdtmig/datasets/RS/variables/STUDYID","title":"Version-agnostic anchor resource for SDTMIG variable RS.STUDYID","type":"Root Data Element"},"self":{"href":"/mdr/sdtmig/3-4/datasets/RS/variables/STUDYID","title":"Study Identifier","type":"SDTM Dataset Variable"}},"core":"Req","description":"Unique identifier for a study.","label":"Study Identifier","name":"STUDYID","ordinal":"1","role":"Identifier","simpleDatatype":"Char"},{"_links":{"modelClassVariable":{"href":"/mdr/sdtm/2-0/classes/GeneralObservations/variables/DOMAIN","title":"Domain Abbreviation","type":"SDTM Class Variable"},"parentDataset":{"href":"/mdr/sdtmig/3-4/datasets/RS","title":"Disease Response and Clin Classification","type":"SDTM Dataset"},"parentProduct":{"href":"/mdr/sdtmig/3-4","title":"Study Data Tabulation Model Implementation Guide: Human Clinical Trials","type":"Implementation Guide"},"priorVersion":{"href":"/mdr/sdtmig/3-3/datasets/RS/variables/DOMAIN","title":"Domain Abbreviation","type":"SDTM Dataset Variable"},"rootItem":{"href":"/mdr/root/sdtmig/datasets/RS/variables/DOMAIN","title":"Version-agnostic anchor resource for SDTMIG variable RS.DOMAIN","type":"Root Data Element"},"self":{"href":"/mdr/sdtmig/3-4/datasets/RS/variables/DOMAIN","title":"Domain Abbreviation","type":"SDTM Dataset Variable"}},"core":"Req","description":"Two-character abbreviation for the domain.","label":"Domain Abbreviation","name":"DOMAIN","ordinal":"2","role":"Identifier","simpleDatatype":"Char","valueList":["RS"]},{"_links":{"modelClassVariable":{"href":"/mdr/sdtm/2-0/classes/GeneralObservations/variables/USUBJID","title":"Unique Subject Identifier","type":"SDTM Class Variable"},"parentDataset":{"href":"/mdr/sdtmig/3-4/datasets/RS","title":"Disease Response and Clin Classification","type":"SDTM Dataset"},"parentProduct":{"href":"/mdr/sdtmig/3-4","title":"Study Data Tabulation Model Implementation Guide: Human Clinical Trials","type":"Implementation Guide"},"priorVersion":{"href":"/mdr/sdtmig/3-3/datasets/RS/variables/USUBJID","title":"Unique Subject Identifier","type":"SDTM Dataset Variable"},"rootItem":{"href":"/mdr/root/sdtmig/datasets/RS/variables/USUBJID","title":"Version-agnostic anchor resource for SDTMIG variable RS.USUBJID","type":"Root Data Element"},"self":{"href":"/mdr/sdtmig/3-4/datasets/RS/variables/USUBJID","title":"Unique Subject Identifier","type":"SDTM Dataset Variable"}},"core":"Req","description":"Identifier used to uniquely identify a subject across all studies for all applications or submissions involving the product.","label":"Unique Subject Identifier","name":"USUBJID","ordinal":"3","role":"Identifier","simpleDatatype":"Char"},{"_links":{"modelClassVariable":{"href":"/mdr/sdtm/2-0/classes/GeneralObservations/variables/--SEQ","title":"Sequence Number","type":"SDTM Class Variable"},"parentDataset":{"href":"/mdr/sdtmig/3-4/datasets/RS","title":"Disease Response and Clin Classification","type":"SDTM Dataset"},"parentProduct":{"href":"/mdr/sdtmig/3-4","title":"Study Data Tabulation Model Implementation Guide: Human Clinical Trials","type":"Implementation Guide"},"priorVersion":{"href":"/mdr/sdtmig/3-3/datasets/RS/variables/RSSEQ","title":"Sequence Number","type":"SDTM Dataset Variable"},"rootItem":{"href":"/mdr/root/sdtmig/datasets/RS/variables/RSSEQ","title":"Version-agnostic anchor resource for SDTMIG variable RS.RSSEQ","type":"Root Data Element"},"self":{"href":"/mdr/sdtmig/3-4/datasets/RS/variables/RSSEQ","title":"Sequence Number","type":"SDTM Dataset Variable"}},"core":"Req","description":"Sequence number given to ensure uniqueness within a dataset for a subject. May be any valid number.","label":"Sequence Number","name":"RSSEQ","ordinal":"4","role":"Identifier","simpleDatatype":"Num"},{"_links":{"modelClassVariable":{"href":"/mdr/sdtm/2-0/classes/GeneralObservations/variables/--GRPID","title":"Group ID","type":"SDTM Class Variable"},"parentDataset":{"href":"/mdr/sdtmig/3-4/datasets/RS","title":"Disease Response and Clin Classification","type":"SDTM Dataset"},"parentProduct":{"href":"/mdr/sdtmig/3-4","title":"Study Data Tabulation Model Implementation Guide: Human Clinical Trials","type":"Implementation Guide"},"priorVersion":{"href":"/mdr/sdtmig/3-3/datasets/RS/variables/RSGRPID","title":"Group ID","type":"SDTM Dataset Variable"},"rootItem":{"href":"/mdr/root/sdtmig/datasets/RS/variables/RSGRPID","title":"Version-agnostic anchor resource for SDTMIG variable RS.RSGRPID","type":"Root Data Element"},"self":{"href":"/mdr/sdtmig/3-4/datasets/RS/variables/RSGRPID","title":"Group ID","type":"SDTM Dataset Variable"}},"core":"Perm","description":"Used to link together a block of related records within a subject in a domain.","label":"Group ID","name":"RSGRPID","ordinal":"5","role":"Identifier","simpleDatatype":"Char"},{"_links":{"modelClassVariable":{"href":"/mdr/sdtm/2-0/classes/GeneralObservations/variables/--REFID","title":"Reference ID","type":"SDTM Class Variable"},"parentDataset":{"href":"/mdr/sdtmig/3-4/datasets/RS","title":"Disease Response and Clin Classification","type":"SDTM Dataset"},"parentProduct":{"href":"/mdr/sdtmig/3-4","title":"Study Data Tabulation Model Implementation Guide: Human Clinical Trials","type":"Implementation Guide"},"priorVersion":{"href":"/mdr/sdtmig/3-3/datasets/RS/variables/RSREFID","title":"Reference ID","type":"SDTM Dataset Variable"},"rootItem":{"href":"/mdr/root/sdtmig/datasets/RS/variables/RSREFID","title":"Version-agnostic anchor resource for SDTMIG variable RS.RSREFID","type":"Root Data Element"},"self":{"href":"/mdr/sdtmig/3-4/datasets/RS/variables/RSREFID","title":"Reference ID","type":"SDTM Dataset Variable"}},"core":"Perm","description":"Internal or external identifier.","label":"Reference ID","name":"RSREFID","ordinal":"6","role":"Identifier","simpleDatatype":"Char"},{"_links":{"modelClassVariable":{"href":"/mdr/sdtm/2-0/classes/GeneralObservations/variables/--SPID","title":"Sponsor-Defined Identifier","type":"SDTM Class Variable"},"parentDataset":{"href":"/mdr/sdtmig/3-4/datasets/RS","title":"Disease Response and Clin Classification","type":"SDTM Dataset"},"parentProduct":{"href":"/mdr/sdtmig/3-4","title":"Study Data Tabulation Model Implementation Guide: Human Clinical Trials","type":"Implementation Guide"},"priorVersion":{"href":"/mdr/sdtmig/3-3/datasets/RS/variables/RSSPID","title":"Sponsor-Defined Identifier","type":"SDTM Dataset Variable"},"rootItem":{"href":"/mdr/root/sdtmig/datasets/RS/variables/RSSPID","title":"Version-agnostic anchor resource for SDTMIG variable RS.RSSPID","type":"Root Data Element"},"self":{"href":"/mdr/sdtmig/3-4/datasets/RS/variables/RSSPID","title":"Sponsor-Defined Identifier","type":"SDTM Dataset Variable"}},"core":"Perm","description":"Sponsor-defined identifier.","label":"Sponsor-Defined Identifier","name":"RSSPID","ordinal":"7","role":"Identifier","simpleDatatype":"Char"},{"_links":{"modelClassVariable":{"href":"/mdr/sdtm/2-0/classes/GeneralObservations/variables/--LNKID","title":"Link ID","type":"SDTM Class Variable"},"parentDataset":{"href":"/mdr/sdtmig/3-4/datasets/RS","title":"Disease Response and Clin Classification","type":"SDTM Dataset"},"parentProduct":{"href":"/mdr/sdtmig/3-4","title":"Study Data Tabulation Model Implementation Guide: Human Clinical Trials","type":"Implementation Guide"},"priorVersion":{"href":"/mdr/sdtmig/3-3/datasets/RS/variables/RSLNKID","title":"Link ID","type":"SDTM Dataset Variable"},"rootItem":{"href":"/mdr/root/sdtmig/datasets/RS/variables/RSLNKID","title":"Version-agnostic anchor resource for SDTMIG variable RS.RSLNKID","type":"Root Data Element"},"self":{"href":"/mdr/sdtmig/3-4/datasets/RS/variables/RSLNKID","title":"Link ID","type":"SDTM Dataset Variable"}},"core":"Perm","description":"An identifier used to link the response assessment to the related measurement record in another domain which was used to determine the response result. LNKID values group records within USUBJID.","label":"Link ID","name":"RSLNKID","ordinal":"8","role":"Identifier","simpleDatatype":"Char"},{"_links":{"modelClassVariable":{"href":"/mdr/sdtm/2-0/classes/GeneralObservations/variables/--LNKGRP","title":"Link Group ID","type":"SDTM Class Variable"},"parentDataset":{"href":"/mdr/sdtmig/3-4/datasets/RS","title":"Disease Response and Clin Classification","type":"SDTM Dataset"},"parentProduct":{"href":"/mdr/sdtmig/3-4","title":"Study Data Tabulation Model Implementation Guide: Human Clinical Trials","type":"Implementation Guide"},"priorVersion":{"href":"/mdr/sdtmig/3-3/datasets/RS/variables/RSLNKGRP","title":"Link Group ID","type":"SDTM Dataset Variable"},"rootItem":{"href":"/mdr/root/sdtmig/datasets/RS/variables/RSLNKGRP","title":"Version-agnostic anchor resource for SDTMIG variable RS.RSLNKGRP","type":"Root Data Element"},"self":{"href":"/mdr/sdtmig/3-4/datasets/RS/variables/RSLNKGRP","title":"Link Group ID","type":"SDTM Dataset Variable"}},"core":"Perm","description":"A grouping identifier used to link the response assessment to a group of measurement/assessment records which were used in the assessment of the response. LNKGRP values group records within USUBJID.","label":"Link Group ID","name":"RSLNKGRP","ordinal":"9","role":"Identifier","simpleDatatype":"Char"},{"_links":{"codelist":[{"href":"/mdr/root/ct/sdtmct/codelists/C96782","title":"Version-agnostic anchor resource for codelist C96782","type":"Root Value Domain"}],"modelClassVariable":{"href":"/mdr/sdtm/2-0/classes/Findings/variables/--TESTCD","title":"Short Name of Measurement, Test, or Exam","type":"SDTM Class Variable"},"parentDataset":{"href":"/mdr/sdtmig/3-4/datasets/RS","title":"Disease Response and Clin Classification","type":"SDTM Dataset"},"parentProduct":{"href":"/mdr/sdtmig/3-4","title":"Study Data Tabulation Model Implementation Guide: Human Clinical Trials","type":"Implementation Guide"},"priorVersion":{"href":"/mdr/sdtmig/3-3/datasets/RS/variables/RSTESTCD","title":"Assessment Short Name","type":"SDTM Dataset Variable"},"rootItem":{"href":"/mdr/root/sdtmig/datasets/RS/variables/RSTESTCD","title":"Version-agnostic anchor resource for SDTMIG variable RS.RSTESTCD","type":"Root Data Element"},"self":{"href":"/mdr/sdtmig/3-4/datasets/RS/variables/RSTESTCD","title":"Assessment Short Name","type":"SDTM Dataset Variable"}},"core":"Req","description":"Short name of the TEST in RSTEST. The value in RSTESTCD cannot be longer than 8 characters, nor can it start with a number (e.g., \"1TEST\" is not valid). RSTESTCD cannot contain characters other than letters, numbers, or underscores. Examples: \"TRGRESP\", \"NTRGRESP\", \"OVRLRESP\", \"SYMPTDTR\", \"CPS0102\". \\n There are separate codelists used for RSTESTCD where the choice depends on the value of RSCAT. Codelist \"ONCRTSCD\" is used for oncology response criteria (when RSCAT is a term in codelist \"ONCRSCAT\"). Examples: TRGRESP, \"NTRGRESP, \"OVRLRESP\". For Clinical Classifications (when RSCAT is a term in codelist \"CCCAT\"), QRS Naming Rules apply. These instruments have individual dedicated terminology codelists.","label":"Assessment Short Name","name":"RSTESTCD","ordinal":"10","role":"Topic","simpleDatatype":"Char"},{"_links":{"codelist":[{"href":"/mdr/root/ct/sdtmct/codelists/C96781","title":"Version-agnostic anchor resource for codelist C96781","type":"Root Value Domain"}],"modelClassVariable":{"href":"/mdr/sdtm/2-0/classes/Findings/variables/--TEST","title":"Name of Measurement, Test, or Exam","type":"SDTM Class Variable"},"parentDataset":{"href":"/mdr/sdtmig/3-4/datasets/RS","title":"Disease Response and Clin Classification","type":"SDTM Dataset"},"parentProduct":{"href":"/mdr/sdtmig/3-4","title":"Study Data Tabulation Model Implementation Guide: Human Clinical Trials","type":"Implementation Guide"},"priorVersion":{"href":"/mdr/sdtmig/3-3/datasets/RS/variables/RSTEST","title":"Assessment Name","type":"SDTM Dataset Variable"},"rootItem":{"href":"/mdr/root/sdtmig/datasets/RS/variables/RSTEST","title":"Version-agnostic anchor resource for SDTMIG variable RS.RSTEST","type":"Root Data Element"},"self":{"href":"/mdr/sdtmig/3-4/datasets/RS/variables/RSTEST","title":"Assessment Name","type":"SDTM Dataset Variable"}},"core":"Req","description":"Verbatim name of the response assessment. The value in RSTEST cannot be longer than 40 characters. \\n There are separate codelists used for RSTEST where the choice depends on the value of RSCAT. Codelist \"ONCRTS\" is used for oncology response criteria (when RSCAT is a term in codelist \"ONCRSCAT\"). Examples: \"Target Response\", \"Non-target Response\", \"Overall Response\", \"Symptomatic Deterioration\". For Clinical Classifications (when RSCAT is a term in codelist \"CCCAT\"), QRS Naming Rules apply. These instruments have individual dedicated terminology codelists.","label":"Assessment Name","name":"RSTEST","ordinal":"11","role":"Synonym Qualifier","simpleDatatype":"Char"},{"_links":{"codelist":[{"href":"/mdr/root/ct/sdtmct/codelists/C124298","title":"Version-agnostic anchor resource for codelist C124298","type":"Root Value Domain"},{"href":"/mdr/root/ct/sdtmct/codelists/C118971","title":"Version-agnostic anchor resource for codelist C118971","type":"Root Value Domain"}],"modelClassVariable":{"href":"/mdr/sdtm/2-0/classes/Findings/variables/--CAT","title":"Category","type":"SDTM Class Variable"},"parentDataset":{"href":"/mdr/sdtmig/3-4/datasets/RS","title":"Disease Response and Clin Classification","type":"SDTM Dataset"},"parentProduct":{"href":"/mdr/sdtmig/3-4","title":"Study Data Tabulation Model Implementation Guide: Human Clinical Trials","type":"Implementation Guide"},"priorVersion":{"href":"/mdr/sdtmig/3-3/datasets/RS/variables/RSCAT","title":"Category for Assessment","type":"SDTM Dataset Variable"},"rootItem":{"href":"/mdr/root/sdtmig/datasets/RS/variables/RSCAT","title":"Version-agnostic anchor resource for SDTMIG variable RS.RSCAT","type":"Root Data Element"},"self":{"href":"/mdr/sdtmig/3-4/datasets/RS/variables/RSCAT","title":"Category for Assessment","type":"SDTM Dataset Variable"}},"core":"Exp","description":"Used to define a category of related records across subjects. Examples: \"RECIST 1.1\", \"CHILD-PUGH CLASSIFICATION\". There are separate codelists used for RSCAT where the choice depends on whether the related records are about an oncology response criterion or another clinical classification. \\n RSCAT is required for clinical classifications other than oncology response criteria.","label":"Category for Assessment","name":"RSCAT","ordinal":"12","role":"Grouping Qualifier","simpleDatatype":"Char"},{"_links":{"modelClassVariable":{"href":"/mdr/sdtm/2-0/classes/Findings/variables/--SCAT","title":"Subcategory","type":"SDTM Class Variable"},"parentDataset":{"href":"/mdr/sdtmig/3-4/datasets/RS","title":"Disease Response and Clin Classification","type":"SDTM Dataset"},"parentProduct":{"href":"/mdr/sdtmig/3-4","title":"Study Data Tabulation Model Implementation Guide: Human Clinical Trials","type":"Implementation Guide"},"priorVersion":{"href":"/mdr/sdtmig/3-3/datasets/RS/variables/RSSCAT","title":"Subcategory","type":"SDTM Dataset Variable"},"rootItem":{"href":"/mdr/root/sdtmig/datasets/RS/variables/RSSCAT","title":"Version-agnostic anchor resource for SDTMIG variable RS.RSSCAT","type":"Root Data Element"},"self":{"href":"/mdr/sdtmig/3-4/datasets/RS/variables/RSSCAT","title":"Subcategory","type":"SDTM Dataset Variable"}},"core":"Perm","description":"Used to define a further categorization of RSCAT values.","label":"Subcategory","name":"RSSCAT","ordinal":"13","role":"Grouping Qualifier","simpleDatatype":"Char"},{"_links":{"modelClassVariable":{"href":"/mdr/sdtm/2-0/classes/Findings/variables/--ORRES","title":"Result or Finding in Original Units","type":"SDTM Class Variable"},"parentDataset":{"href":"/mdr/sdtmig/3-4/datasets/RS","title":"Disease Response and Clin Classification","type":"SDTM Dataset"},"parentProduct":{"href":"/mdr/sdtmig/3-4","title":"Study Data Tabulation Model Implementation Guide: Human Clinical Trials","type":"Implementation Guide"},"priorVersion":{"href":"/mdr/sdtmig/3-3/datasets/RS/variables/RSORRES","title":"Result or Finding in Original Units","type":"SDTM Dataset Variable"},"rootItem":{"href":"/mdr/root/sdtmig/datasets/RS/variables/RSORRES","title":"Version-agnostic anchor resource for SDTMIG variable RS.RSORRES","type":"Root Data Element"},"self":{"href":"/mdr/sdtmig/3-4/datasets/RS/variables/RSORRES","title":"Result or Finding in Original Units","type":"SDTM Dataset Variable"}},"core":"Exp","description":"Result of the response assessment as originally received, collected, or calculated.","label":"Result or Finding in Original Units","name":"RSORRES","ordinal":"14","role":"Result Qualifier","simpleDatatype":"Char"},{"_links":{"codelist":[{"href":"/mdr/root/ct/sdtmct/codelists/C71620","title":"Version-agnostic anchor resource for codelist C71620","type":"Root Value Domain"}],"modelClassVariable":{"href":"/mdr/sdtm/2-0/classes/Findings/variables/--ORRESU","title":"Original Units","type":"SDTM Class Variable"},"parentDataset":{"href":"/mdr/sdtmig/3-4/datasets/RS","title":"Disease Response and Clin Classification","type":"SDTM Dataset"},"parentProduct":{"href":"/mdr/sdtmig/3-4","title":"Study Data Tabulation Model Implementation Guide: Human Clinical Trials","type":"Implementation Guide"},"priorVersion":{"href":"/mdr/sdtmig/3-3/datasets/RS/variables/RSORRESU","title":"Original Units","type":"SDTM Dataset Variable"},"rootItem":{"href":"/mdr/root/sdtmig/datasets/RS/variables/RSORRESU","title":"Version-agnostic anchor resource for SDTMIG variable RS.RSORRESU","type":"Root Data Element"},"self":{"href":"/mdr/sdtmig/3-4/datasets/RS/variables/RSORRESU","title":"Original Units","type":"SDTM Dataset Variable"}},"core":"Perm","description":"Unit for RSORRES.","label":"Original Units","name":"RSORRESU","ordinal":"15","role":"Variable Qualifier","simpleDatatype":"Char"},{"_links":{"codelist":[{"href":"/mdr/root/ct/sdtmct/codelists/C96785","title":"Version-agnostic anchor resource for codelist C96785","type":"Root Value Domain"}],"modelClassVariable":{"href":"/mdr/sdtm/2-0/classes/Findings/variables/--STRESC","title":"Result or Finding in Standard Format","type":"SDTM Class Variable"},"parentDataset":{"href":"/mdr/sdtmig/3-4/datasets/RS","title":"Disease Response and Clin Classification","type":"SDTM Dataset"},"parentProduct":{"href":"/mdr/sdtmig/3-4","title":"Study Data Tabulation Model Implementation Guide: Human Clinical Trials","type":"Implementation Guide"},"priorVersion":{"href":"/mdr/sdtmig/3-3/datasets/RS/variables/RSSTRESC","title":"Character Result/Finding in Std Format","type":"SDTM Dataset Variable"},"rootItem":{"href":"/mdr/root/sdtmig/datasets/RS/variables/RSSTRESC","title":"Version-agnostic anchor resource for SDTMIG variable RS.RSSTRESC","type":"Root Data Element"},"self":{"href":"/mdr/sdtmig/3-4/datasets/RS/variables/RSSTRESC","title":"Character Result/Finding in Std Format","type":"SDTM Dataset Variable"}},"core":"Exp","description":"Contains the result value for the response assessment, copied, or derived from RSORRES in a standard format or standard units. RSSTRESC should store all results or findings in character format. \\n For Clinical Classifications, this may be a score.","label":"Character Result/Finding in Std Format","name":"RSSTRESC","ordinal":"16","role":"Result Qualifier","simpleDatatype":"Char"},{"_links":{"modelClassVariable":{"href":"/mdr/sdtm/2-0/classes/Findings/variables/--STRESN","title":"Numeric Result/Finding in Standard Units","type":"SDTM Class Variable"},"parentDataset":{"href":"/mdr/sdtmig/3-4/datasets/RS","title":"Disease Response and Clin Classification","type":"SDTM Dataset"},"parentProduct":{"href":"/mdr/sdtmig/3-4","title":"Study Data Tabulation Model Implementation Guide: Human Clinical Trials","type":"Implementation Guide"},"priorVersion":{"href":"/mdr/sdtmig/3-3/datasets/RS/variables/RSSTRESN","title":"Numeric Result/Finding in Standard Units","type":"SDTM Dataset Variable"},"rootItem":{"href":"/mdr/root/sdtmig/datasets/RS/variables/RSSTRESN","title":"Version-agnostic anchor resource for SDTMIG variable RS.RSSTRESN","type":"Root Data Element"},"self":{"href":"/mdr/sdtmig/3-4/datasets/RS/variables/RSSTRESN","title":"Numeric Result/Finding in Standard Units","type":"SDTM Dataset Variable"}},"core":"Perm","description":"Used for continuous or numeric results or findings in standard format; copied in numeric format from --STRESC. --STRESN should store all numeric test results or findings. For Clinical Classifications, this may be a score.","label":"Numeric Result/Finding in Standard Units","name":"RSSTRESN","ordinal":"17","role":"Result Qualifier","simpleDatatype":"Num"},{"_links":{"codelist":[{"href":"/mdr/root/ct/sdtmct/codelists/C71620","title":"Version-agnostic anchor resource for codelist C71620","type":"Root Value Domain"}],"modelClassVariable":{"href":"/mdr/sdtm/2-0/classes/Findings/variables/--STRESU","title":"Standard Units","type":"SDTM Class Variable"},"parentDataset":{"href":"/mdr/sdtmig/3-4/datasets/RS","title":"Disease Response and Clin Classification","type":"SDTM Dataset"},"parentProduct":{"href":"/mdr/sdtmig/3-4","title":"Study Data Tabulation Model Implementation Guide: Human Clinical Trials","type":"Implementation Guide"},"priorVersion":{"href":"/mdr/sdtmig/3-3/datasets/RS/variables/RSSTRESU","title":"Standard Units","type":"SDTM Dataset Variable"},"rootItem":{"href":"/mdr/root/sdtmig/datasets/RS/variables/RSSTRESU","title":"Version-agnostic anchor resource for SDTMIG variable RS.RSSTRESU","type":"Root Data Element"},"self":{"href":"/mdr/sdtmig/3-4/datasets/RS/variables/RSSTRESU","title":"Standard Units","type":"SDTM Dataset Variable"}},"core":"Perm","description":"Standardized units used for RSSTRESC and RSSTRESN.","label":"Standard Units","name":"RSSTRESU","ordinal":"18","role":"Variable Qualifier","simpleDatatype":"Char"},{"_links":{"codelist":[{"href":"/mdr/root/ct/sdtmct/codelists/C66789","title":"Version-agnostic anchor resource for codelist C66789","type":"Root Value Domain"}],"modelClassVariable":{"href":"/mdr/sdtm/2-0/classes/Findings/variables/--STAT","title":"Completion Status","type":"SDTM Class Variable"},"parentDataset":{"href":"/mdr/sdtmig/3-4/datasets/RS","title":"Disease Response and Clin Classification","type":"SDTM Dataset"},"parentProduct":{"href":"/mdr/sdtmig/3-4","title":"Study Data Tabulation Model Implementation Guide: Human Clinical Trials","type":"Implementation Guide"},"priorVersion":{"href":"/mdr/sdtmig/3-3/datasets/RS/variables/RSSTAT","title":"Completion Status","type":"SDTM Dataset Variable"},"rootItem":{"href":"/mdr/root/sdtmig/datasets/RS/variables/RSSTAT","title":"Version-agnostic anchor resource for SDTMIG variable RS.RSSTAT","type":"Root Data Element"},"self":{"href":"/mdr/sdtmig/3-4/datasets/RS/variables/RSSTAT","title":"Completion Status","type":"SDTM Dataset Variable"}},"core":"Perm","description":"Used to indicate the response assessment was not performed. Should be null if a result exists in RSORRES.","label":"Completion Status","name":"RSSTAT","ordinal":"19","role":"Record Qualifier","simpleDatatype":"Char"},{"_links":{"modelClassVariable":{"href":"/mdr/sdtm/2-0/classes/Findings/variables/--REASND","title":"Reason Not Done","type":"SDTM Class Variable"},"parentDataset":{"href":"/mdr/sdtmig/3-4/datasets/RS","title":"Disease Response and Clin Classification","type":"SDTM Dataset"},"parentProduct":{"href":"/mdr/sdtmig/3-4","title":"Study Data Tabulation Model Implementation Guide: Human Clinical Trials","type":"Implementation Guide"},"priorVersion":{"href":"/mdr/sdtmig/3-3/datasets/RS/variables/RSREASND","title":"Reason Not Done","type":"SDTM Dataset Variable"},"rootItem":{"href":"/mdr/root/sdtmig/datasets/RS/variables/RSREASND","title":"Version-agnostic anchor resource for SDTMIG variable RS.RSREASND","type":"Root Data Element"},"self":{"href":"/mdr/sdtmig/3-4/datasets/RS/variables/RSREASND","title":"Reason Not Done","type":"SDTM Dataset Variable"}},"core":"Perm","description":"Describes why a response assessment was not performed. Examples: \"All target tumors not evaluated\", \"Subject does not have non-target tumors\". Used in conjunction with RSSTAT when value is \"NOT DONE\".","label":"Reason Not Done","name":"RSREASND","ordinal":"20","role":"Record Qualifier","simpleDatatype":"Char"},{"_links":{"modelClassVariable":{"href":"/mdr/sdtm/2-0/classes/Findings/variables/--NAM","title":"Laboratory/Vendor Name","type":"SDTM Class Variable"},"parentDataset":{"href":"/mdr/sdtmig/3-4/datasets/RS","title":"Disease Response and Clin Classification","type":"SDTM Dataset"},"parentProduct":{"href":"/mdr/sdtmig/3-4","title":"Study Data Tabulation Model Implementation Guide: Human Clinical Trials","type":"Implementation Guide"},"priorVersion":{"href":"/mdr/sdtmig/3-3/datasets/RS/variables/RSNAM","title":"Vendor Name","type":"SDTM Dataset Variable"},"rootItem":{"href":"/mdr/root/sdtmig/datasets/RS/variables/RSNAM","title":"Version-agnostic anchor resource for SDTMIG variable RS.RSNAM","type":"Root Data Element"},"self":{"href":"/mdr/sdtmig/3-4/datasets/RS/variables/RSNAM","title":"Vendor Name","type":"SDTM Dataset Variable"}},"core":"Perm","description":"The name or identifier of the vendor that performed the response assessment. This column can be left null when the investigator provides the complete set of data in the domain.","label":"Vendor Name","name":"RSNAM","ordinal":"21","role":"Record Qualifier","simpleDatatype":"Char"},{"_links":{"codelist":[{"href":"/mdr/root/ct/sdtmct/codelists/C158113","title":"Version-agnostic anchor resource for codelist C158113","type":"Root Value Domain"}],"modelClassVariable":{"href":"/mdr/sdtm/2-0/classes/Findings/variables/--METHOD","title":"Method of Test or Examination","type":"SDTM Class Variable"},"parentDataset":{"href":"/mdr/sdtmig/3-4/datasets/RS","title":"Disease Response and Clin Classification","type":"SDTM Dataset"},"parentProduct":{"href":"/mdr/sdtmig/3-4","title":"Study Data Tabulation Model Implementation Guide: Human Clinical Trials","type":"Implementation Guide"},"rootItem":{"href":"/mdr/root/sdtmig/datasets/RS/variables/RSMETHOD","title":"Version-agnostic anchor resource for SDTMIG variable RS.RSMETHOD","type":"Root Data Element"},"self":{"href":"/mdr/sdtmig/3-4/datasets/RS/variables/RSMETHOD","title":"Method of Test or Examination","type":"SDTM Dataset Variable"}},"core":"Perm","description":"Method of the test or examination.","label":"Method of Test or Examination","name":"RSMETHOD","ordinal":"22","role":"Record Qualifier","simpleDatatype":"Char"},{"_links":{"codelist":[{"href":"/mdr/root/ct/sdtmct/codelists/C66742","title":"Version-agnostic anchor resource for codelist C66742","type":"Root Value Domain"}],"modelClassVariable":{"href":"/mdr/sdtm/2-0/classes/Findings/variables/--LOBXFL","title":"Last Observation Before Exposure Flag","type":"SDTM Class Variable"},"parentDataset":{"href":"/mdr/sdtmig/3-4/datasets/RS","title":"Disease Response and Clin Classification","type":"SDTM Dataset"},"parentProduct":{"href":"/mdr/sdtmig/3-4","title":"Study Data Tabulation Model Implementation Guide: Human Clinical Trials","type":"Implementation Guide"},"priorVersion":{"href":"/mdr/sdtmig/3-3/datasets/RS/variables/RSLOBXFL","title":"Last Observation Before Exposure Flag","type":"SDTM Dataset Variable"},"rootItem":{"href":"/mdr/root/sdtmig/datasets/RS/variables/RSLOBXFL","title":"Version-agnostic anchor resource for SDTMIG variable RS.RSLOBXFL","type":"Root Data Element"},"self":{"href":"/mdr/sdtmig/3-4/datasets/RS/variables/RSLOBXFL","title":"Last Observation Before Exposure Flag","type":"SDTM Dataset Variable"}},"core":"Perm","description":"Operationally derived indicator used to identify the last non-missing value prior to RFXSTDTC. The value should be \"Y\" or null. \\n When a clinical classification is assessed at multiple times, including baseline, RSLOBXFL should be included in the dataset.","label":"Last Observation Before Exposure Flag","name":"RSLOBXFL","ordinal":"23","role":"Record Qualifier","simpleDatatype":"Char"},{"_links":{"codelist":[{"href":"/mdr/root/ct/sdtmct/codelists/C66742","title":"Version-agnostic anchor resource for codelist C66742","type":"Root Value Domain"}],"modelClassVariable":{"href":"/mdr/sdtm/2-0/classes/Findings/variables/--BLFL","title":"Baseline Flag","type":"SDTM Class Variable"},"parentDataset":{"href":"/mdr/sdtmig/3-4/datasets/RS","title":"Disease Response and Clin Classification","type":"SDTM Dataset"},"parentProduct":{"href":"/mdr/sdtmig/3-4","title":"Study Data Tabulation Model Implementation Guide: Human Clinical Trials","type":"Implementation Guide"},"priorVersion":{"href":"/mdr/sdtmig/3-3/datasets/RS/variables/RSBLFL","title":"Baseline Flag","type":"SDTM Dataset Variable"},"rootItem":{"href":"/mdr/root/sdtmig/datasets/RS/variables/RSBLFL","title":"Version-agnostic anchor resource for SDTMIG variable RS.RSBLFL","type":"Root Data Element"},"self":{"href":"/mdr/sdtmig/3-4/datasets/RS/variables/RSBLFL","title":"Baseline Flag","type":"SDTM Dataset Variable"}},"core":"Perm","description":"Indicator used to identify a baseline value. Should be \"Y\" or null. Note that --BLFL is retained for backward compatibility. The authoritative baseline for statistical analysis is in an ADaM dataset.","label":"Baseline Flag","name":"RSBLFL","ordinal":"24","role":"Record Qualifier","simpleDatatype":"Char"},{"_links":{"codelist":[{"href":"/mdr/root/ct/sdtmct/codelists/C66742","title":"Version-agnostic anchor resource for codelist C66742","type":"Root Value Domain"}],"modelClassVariable":{"href":"/mdr/sdtm/2-0/classes/Findings/variables/--DRVFL","title":"Derived Flag","type":"SDTM Class Variable"},"parentDataset":{"href":"/mdr/sdtmig/3-4/datasets/RS","title":"Disease Response and Clin Classification","type":"SDTM Dataset"},"parentProduct":{"href":"/mdr/sdtmig/3-4","title":"Study Data Tabulation Model Implementation Guide: Human Clinical Trials","type":"Implementation Guide"},"priorVersion":{"href":"/mdr/sdtmig/3-3/datasets/RS/variables/RSDRVFL","title":"Derived Flag","type":"SDTM Dataset Variable"},"rootItem":{"href":"/mdr/root/sdtmig/datasets/RS/variables/RSDRVFL","title":"Version-agnostic anchor resource for SDTMIG variable RS.RSDRVFL","type":"Root Data Element"},"self":{"href":"/mdr/sdtmig/3-4/datasets/RS/variables/RSDRVFL","title":"Derived Flag","type":"SDTM Dataset Variable"}},"core":"Perm","description":"Used to indicate a derived record (e.g., a record that represents the average of other records such as a computed baseline). Should be \"Y\" or null.","label":"Derived Flag","name":"RSDRVFL","ordinal":"25","role":"Record Qualifier","simpleDatatype":"Char"},{"_links":{"codelist":[{"href":"/mdr/root/ct/sdtmct/codelists/C78735","title":"Version-agnostic anchor resource for codelist C78735","type":"Root Value Domain"}],"modelClassVariable":{"href":"/mdr/sdtm/2-0/classes/Findings/variables/--EVAL","title":"Evaluator","type":"SDTM Class Variable"},"parentDataset":{"href":"/mdr/sdtmig/3-4/datasets/RS","title":"Disease Response and Clin Classification","type":"SDTM Dataset"},"parentProduct":{"href":"/mdr/sdtmig/3-4","title":"Study Data Tabulation Model Implementation Guide: Human Clinical Trials","type":"Implementation Guide"},"priorVersion":{"href":"/mdr/sdtmig/3-3/datasets/RS/variables/RSEVAL","title":"Evaluator","type":"SDTM Dataset Variable"},"rootItem":{"href":"/mdr/root/sdtmig/datasets/RS/variables/RSEVAL","title":"Version-agnostic anchor resource for SDTMIG variable RS.RSEVAL","type":"Root Data Element"},"self":{"href":"/mdr/sdtmig/3-4/datasets/RS/variables/RSEVAL","title":"Evaluator","type":"SDTM Dataset Variable"}},"core":"Perm","description":"Role of the person who provided the evaluation. Used only for results that are subjective (e.g., assigned by a person or a group). Examples: \"ADJUDICATION COMMITTEE\", \"INDEPENDENT ASSESSOR\", \"RADIOLOGIST\". \\n RSEVAL is expected for oncology response criteria. It can be left null when the investigator provides the complete set of data in the domain. However, the column should contain no null values when data from one or more independent assessors is included, meaning that the rows attributed to the investigator should contain a value of \"INVESTIGATOR\".","label":"Evaluator","name":"RSEVAL","ordinal":"26","role":"Record Qualifier","simpleDatatype":"Char"},{"_links":{"codelist":[{"href":"/mdr/root/ct/sdtmct/codelists/C96777","title":"Version-agnostic anchor resource for codelist C96777","type":"Root Value Domain"}],"modelClassVariable":{"href":"/mdr/sdtm/2-0/classes/Findings/variables/--EVALID","title":"Evaluator Identifier","type":"SDTM Class Variable"},"parentDataset":{"href":"/mdr/sdtmig/3-4/datasets/RS","title":"Disease Response and Clin Classification","type":"SDTM Dataset"},"parentProduct":{"href":"/mdr/sdtmig/3-4","title":"Study Data Tabulation Model Implementation Guide: Human Clinical Trials","type":"Implementation Guide"},"priorVersion":{"href":"/mdr/sdtmig/3-3/datasets/RS/variables/RSEVALID","title":"Evaluator Identifier","type":"SDTM Dataset Variable"},"rootItem":{"href":"/mdr/root/sdtmig/datasets/RS/variables/RSEVALID","title":"Version-agnostic anchor resource for SDTMIG variable RS.RSEVALID","type":"Root Data Element"},"self":{"href":"/mdr/sdtmig/3-4/datasets/RS/variables/RSEVALID","title":"Evaluator Identifier","type":"SDTM Dataset Variable"}},"core":"Perm","description":"Used to distinguish multiple evaluators with the same role recorded in RSEVAL. Examples: \"RADIOLOGIST1\", \"RADIOLOGIST2\". See assumptions in Section 6.3.9.3.1, Disease Response Use Case.","label":"Evaluator Identifier","name":"RSEVALID","ordinal":"27","role":"Variable Qualifier","simpleDatatype":"Char"},{"_links":{"codelist":[{"href":"/mdr/root/ct/sdtmct/codelists/C66742","title":"Version-agnostic anchor resource for codelist C66742","type":"Root Value Domain"}],"modelClassVariable":{"href":"/mdr/sdtm/2-0/classes/Findings/variables/--ACPTFL","title":"Accepted Record Flag","type":"SDTM Class Variable"},"parentDataset":{"href":"/mdr/sdtmig/3-4/datasets/RS","title":"Disease Response and Clin Classification","type":"SDTM Dataset"},"parentProduct":{"href":"/mdr/sdtmig/3-4","title":"Study Data Tabulation Model Implementation Guide: Human Clinical Trials","type":"Implementation Guide"},"priorVersion":{"href":"/mdr/sdtmig/3-3/datasets/RS/variables/RSACPTFL","title":"Accepted Record Flag","type":"SDTM Dataset Variable"},"rootItem":{"href":"/mdr/root/sdtmig/datasets/RS/variables/RSACPTFL","title":"Version-agnostic anchor resource for SDTMIG variable RS.RSACPTFL","type":"Root Data Element"},"self":{"href":"/mdr/sdtmig/3-4/datasets/RS/variables/RSACPTFL","title":"Accepted Record Flag","type":"SDTM Dataset Variable"}},"core":"Perm","description":"In cases where more than 1 independent assessor (e.g., \"RADIOLOGIST 1\", \"RADIOLOGIST 2\", \"ADJUDICATOR\") provides an evaluation of response, this flag identifies the record that is considered to be the accepted evaluation.","label":"Accepted Record Flag","name":"RSACPTFL","ordinal":"28","role":"Record Qualifier","simpleDatatype":"Char"},{"_links":{"modelClassVariable":{"href":"/mdr/sdtm/2-0/classes/GeneralObservations/variables/VISITNUM","title":"Visit Number","type":"SDTM Class Variable"},"parentDataset":{"href":"/mdr/sdtmig/3-4/datasets/RS","title":"Disease Response and Clin Classification","type":"SDTM Dataset"},"parentProduct":{"href":"/mdr/sdtmig/3-4","title":"Study Data Tabulation Model Implementation Guide: Human Clinical Trials","type":"Implementation Guide"},"priorVersion":{"href":"/mdr/sdtmig/3-3/datasets/RS/variables/VISITNUM","title":"Visit Number","type":"SDTM Dataset Variable"},"rootItem":{"href":"/mdr/root/sdtmig/datasets/RS/variables/VISITNUM","title":"Version-agnostic anchor resource for SDTMIG variable RS.VISITNUM","type":"Root Data Element"},"self":{"href":"/mdr/sdtmig/3-4/datasets/RS/variables/VISITNUM","title":"Visit Number","type":"SDTM Dataset Variable"}},"core":"Exp","description":"Clinical encounter number. Numeric version of VISIT, used for sorting.","label":"Visit Number","name":"VISITNUM","ordinal":"29","role":"Timing","simpleDatatype":"Num"},{"_links":{"modelClassVariable":{"href":"/mdr/sdtm/2-0/classes/GeneralObservations/variables/VISIT","title":"Visit Name","type":"SDTM Class Variable"},"parentDataset":{"href":"/mdr/sdtmig/3-4/datasets/RS","title":"Disease Response and Clin Classification","type":"SDTM Dataset"},"parentProduct":{"href":"/mdr/sdtmig/3-4","title":"Study Data Tabulation Model Implementation Guide: Human Clinical Trials","type":"Implementation Guide"},"priorVersion":{"href":"/mdr/sdtmig/3-3/datasets/RS/variables/VISIT","title":"Visit Name","type":"SDTM Dataset Variable"},"rootItem":{"href":"/mdr/root/sdtmig/datasets/RS/variables/VISIT","title":"Version-agnostic anchor resource for SDTMIG variable RS.VISIT","type":"Root Data Element"},"self":{"href":"/mdr/sdtmig/3-4/datasets/RS/variables/VISIT","title":"Visit Name","type":"SDTM Dataset Variable"}},"core":"Perm","description":"Protocol-defined description of a clinical encounter.","label":"Visit Name","name":"VISIT","ordinal":"30","role":"Timing","simpleDatatype":"Char"},{"_links":{"modelClassVariable":{"href":"/mdr/sdtm/2-0/classes/GeneralObservations/variables/VISITDY","title":"Planned Study Day of Visit","type":"SDTM Class Variable"},"parentDataset":{"href":"/mdr/sdtmig/3-4/datasets/RS","title":"Disease Response and Clin Classification","type":"SDTM Dataset"},"parentProduct":{"href":"/mdr/sdtmig/3-4","title":"Study Data Tabulation Model Implementation Guide: Human Clinical Trials","type":"Implementation Guide"},"priorVersion":{"href":"/mdr/sdtmig/3-3/datasets/RS/variables/VISITDY","title":"Planned Study Day of Visit","type":"SDTM Dataset Variable"},"rootItem":{"href":"/mdr/root/sdtmig/datasets/RS/variables/VISITDY","title":"Version-agnostic anchor resource for SDTMIG variable RS.VISITDY","type":"Root Data Element"},"self":{"href":"/mdr/sdtmig/3-4/datasets/RS/variables/VISITDY","title":"Planned Study Day of Visit","type":"SDTM Dataset Variable"}},"core":"Perm","description":"Planned study day of the visit based upon RFSTDTC in Demographics.","label":"Planned Study Day of Visit","name":"VISITDY","ordinal":"31","role":"Timing","simpleDatatype":"Num"},{"_links":{"modelClassVariable":{"href":"/mdr/sdtm/2-0/classes/GeneralObservations/variables/TAETORD","title":"Planned Order of Element Within Arm","type":"SDTM Class Variable"},"parentDataset":{"href":"/mdr/sdtmig/3-4/datasets/RS","title":"Disease Response and Clin Classification","type":"SDTM Dataset"},"parentProduct":{"href":"/mdr/sdtmig/3-4","title":"Study Data Tabulation Model Implementation Guide: Human Clinical Trials","type":"Implementation Guide"},"priorVersion":{"href":"/mdr/sdtmig/3-3/datasets/RS/variables/TAETORD","title":"Planned Order of Element within Arm","type":"SDTM Dataset Variable"},"rootItem":{"href":"/mdr/root/sdtmig/datasets/RS/variables/TAETORD","title":"Version-agnostic anchor resource for SDTMIG variable RS.TAETORD","type":"Root Data Element"},"self":{"href":"/mdr/sdtmig/3-4/datasets/RS/variables/TAETORD","title":"Planned Order of Element within Arm","type":"SDTM Dataset Variable"}},"core":"Perm","description":"Number that gives the planned order of the element within the arm for the element in which the assessment was made.","label":"Planned Order of Element within Arm","name":"TAETORD","ordinal":"32","role":"Timing","simpleDatatype":"Num"},{"_links":{"codelist":[{"href":"/mdr/root/ct/sdtmct/codelists/C99079","title":"Version-agnostic anchor resource for codelist C99079","type":"Root Value Domain"}],"modelClassVariable":{"href":"/mdr/sdtm/2-0/classes/GeneralObservations/variables/EPOCH","title":"Epoch","type":"SDTM Class Variable"},"parentDataset":{"href":"/mdr/sdtmig/3-4/datasets/RS","title":"Disease Response and Clin Classification","type":"SDTM Dataset"},"parentProduct":{"href":"/mdr/sdtmig/3-4","title":"Study Data Tabulation Model Implementation Guide: Human Clinical Trials","type":"Implementation Guide"},"priorVersion":{"href":"/mdr/sdtmig/3-3/datasets/RS/variables/EPOCH","title":"Epoch","type":"SDTM Dataset Variable"},"rootItem":{"href":"/mdr/root/sdtmig/datasets/RS/variables/EPOCH","title":"Version-agnostic anchor resource for SDTMIG variable RS.EPOCH","type":"Root Data Element"},"self":{"href":"/mdr/sdtmig/3-4/datasets/RS/variables/EPOCH","title":"Epoch","type":"SDTM Dataset Variable"}},"core":"Perm","description":"Epoch associated with the date/time at which the assessment was made.","label":"Epoch","name":"EPOCH","ordinal":"33","role":"Timing","simpleDatatype":"Char"},{"_links":{"modelClassVariable":{"href":"/mdr/sdtm/2-0/classes/GeneralObservations/variables/--DTC","title":"Date/Time of Collection","type":"SDTM Class Variable"},"parentDataset":{"href":"/mdr/sdtmig/3-4/datasets/RS","title":"Disease Response and Clin Classification","type":"SDTM Dataset"},"parentProduct":{"href":"/mdr/sdtmig/3-4","title":"Study Data Tabulation Model Implementation Guide: Human Clinical Trials","type":"Implementation Guide"},"priorVersion":{"href":"/mdr/sdtmig/3-3/datasets/RS/variables/RSDTC","title":"Date/Time of Assessment","type":"SDTM Dataset Variable"},"rootItem":{"href":"/mdr/root/sdtmig/datasets/RS/variables/RSDTC","title":"Version-agnostic anchor resource for SDTMIG variable RS.RSDTC","type":"Root Data Element"},"self":{"href":"/mdr/sdtmig/3-4/datasets/RS/variables/RSDTC","title":"Date/Time of Assessment","type":"SDTM Dataset Variable"}},"core":"Exp","describedValueDomain":"ISO 8601 datetime or interval","description":"Collection date and time of the assessment represented in ISO 8601 character format.","label":"Date/Time of Assessment","name":"RSDTC","ordinal":"34","role":"Timing","simpleDatatype":"Char"},{"_links":{"modelClassVariable":{"href":"/mdr/sdtm/2-0/classes/GeneralObservations/variables/--DY","title":"Study Day of Visit/Collection/Exam","type":"SDTM Class Variable"},"parentDataset":{"href":"/mdr/sdtmig/3-4/datasets/RS","title":"Disease Response and Clin Classification","type":"SDTM Dataset"},"parentProduct":{"href":"/mdr/sdtmig/3-4","title":"Study Data Tabulation Model Implementation Guide: Human Clinical Trials","type":"Implementation Guide"},"priorVersion":{"href":"/mdr/sdtmig/3-3/datasets/RS/variables/RSDY","title":"Study Day of Assessment","type":"SDTM Dataset Variable"},"rootItem":{"href":"/mdr/root/sdtmig/datasets/RS/variables/RSDY","title":"Version-agnostic anchor resource for SDTMIG variable RS.RSDY","type":"Root Data Element"},"self":{"href":"/mdr/sdtmig/3-4/datasets/RS/variables/RSDY","title":"Study Day of Assessment","type":"SDTM Dataset Variable"}},"core":"Perm","description":"Study day of the assessment, measured as integer days. Algorithm for calculations must be relative to the sponsor-defined RFSTDTC variable in Demographics.","label":"Study Day of Assessment","name":"RSDY","ordinal":"35","role":"Timing","simpleDatatype":"Num"},{"_links":{"modelClassVariable":{"href":"/mdr/sdtm/2-0/classes/GeneralObservations/variables/--TPT","title":"Planned Time Point Name","type":"SDTM Class Variable"},"parentDataset":{"href":"/mdr/sdtmig/3-4/datasets/RS","title":"Disease Response and Clin Classification","type":"SDTM Dataset"},"parentProduct":{"href":"/mdr/sdtmig/3-4","title":"Study Data Tabulation Model Implementation Guide: Human Clinical Trials","type":"Implementation Guide"},"priorVersion":{"href":"/mdr/sdtmig/3-3/datasets/RS/variables/RSTPT","title":"Planned Time Point Name","type":"SDTM Dataset Variable"},"rootItem":{"href":"/mdr/root/sdtmig/datasets/RS/variables/RSTPT","title":"Version-agnostic anchor resource for SDTMIG variable RS.RSTPT","type":"Root Data Element"},"self":{"href":"/mdr/sdtmig/3-4/datasets/RS/variables/RSTPT","title":"Planned Time Point Name","type":"SDTM Dataset Variable"}},"core":"Perm","description":"Text description of time when a measurement or observation should be taken as defined in the protocol. This may be represented as an elapsed time relative to a fixed reference point, such as time of last dose. See RSTPTNUM and RSTPTREF.","label":"Planned Time Point Name","name":"RSTPT","ordinal":"36","role":"Timing","simpleDatatype":"Char"},{"_links":{"modelClassVariable":{"href":"/mdr/sdtm/2-0/classes/GeneralObservations/variables/--TPTNUM","title":"Planned Time Point Number","type":"SDTM Class Variable"},"parentDataset":{"href":"/mdr/sdtmig/3-4/datasets/RS","title":"Disease Response and Clin Classification","type":"SDTM Dataset"},"parentProduct":{"href":"/mdr/sdtmig/3-4","title":"Study Data Tabulation Model Implementation Guide: Human Clinical Trials","type":"Implementation Guide"},"priorVersion":{"href":"/mdr/sdtmig/3-3/datasets/RS/variables/RSTPTNUM","title":"Planned Time Point Number","type":"SDTM Dataset Variable"},"rootItem":{"href":"/mdr/root/sdtmig/datasets/RS/variables/RSTPTNUM","title":"Version-agnostic anchor resource for SDTMIG variable RS.RSTPTNUM","type":"Root Data Element"},"self":{"href":"/mdr/sdtmig/3-4/datasets/RS/variables/RSTPTNUM","title":"Planned Time Point Number","type":"SDTM Dataset Variable"}},"core":"Perm","description":"Numeric version of planned time point used in sorting.","label":"Planned Time Point Number","name":"RSTPTNUM","ordinal":"37","role":"Timing","simpleDatatype":"Num"},{"_links":{"modelClassVariable":{"href":"/mdr/sdtm/2-0/classes/GeneralObservations/variables/--ELTM","title":"Planned Elapsed Time from Time Point Ref","type":"SDTM Class Variable"},"parentDataset":{"href":"/mdr/sdtmig/3-4/datasets/RS","title":"Disease Response and Clin Classification","type":"SDTM Dataset"},"parentProduct":{"href":"/mdr/sdtmig/3-4","title":"Study Data Tabulation Model Implementation Guide: Human Clinical Trials","type":"Implementation Guide"},"priorVersion":{"href":"/mdr/sdtmig/3-3/datasets/RS/variables/RSELTM","title":"Planned Elapsed Time from Time Point Ref","type":"SDTM Dataset Variable"},"rootItem":{"href":"/mdr/root/sdtmig/datasets/RS/variables/RSELTM","title":"Version-agnostic anchor resource for SDTMIG variable RS.RSELTM","type":"Root Data Element"},"self":{"href":"/mdr/sdtmig/3-4/datasets/RS/variables/RSELTM","title":"Planned Elapsed Time from Time Point Ref","type":"SDTM Dataset Variable"}},"core":"Perm","describedValueDomain":"ISO 8601 duration","description":"Planned elapsed time in ISO 8601 character format relative to a planned fixed reference (RSTPTREF; e.g., \"PREVIOUS DOSE\", \"PREVIOUS MEAL\"). This variable is useful where there are repetitive measures. Not a clock time or a date/time variable, but an interval, represented as ISO duration.","label":"Planned Elapsed Time from Time Point Ref","name":"RSELTM","ordinal":"38","role":"Timing","simpleDatatype":"Char"},{"_links":{"modelClassVariable":{"href":"/mdr/sdtm/2-0/classes/GeneralObservations/variables/--TPTREF","title":"Time Point Reference","type":"SDTM Class Variable"},"parentDataset":{"href":"/mdr/sdtmig/3-4/datasets/RS","title":"Disease Response and Clin Classification","type":"SDTM Dataset"},"parentProduct":{"href":"/mdr/sdtmig/3-4","title":"Study Data Tabulation Model Implementation Guide: Human Clinical Trials","type":"Implementation Guide"},"priorVersion":{"href":"/mdr/sdtmig/3-3/datasets/RS/variables/RSTPTREF","title":"Time Point Reference","type":"SDTM Dataset Variable"},"rootItem":{"href":"/mdr/root/sdtmig/datasets/RS/variables/RSTPTREF","title":"Version-agnostic anchor resource for SDTMIG variable RS.RSTPTREF","type":"Root Data Element"},"self":{"href":"/mdr/sdtmig/3-4/datasets/RS/variables/RSTPTREF","title":"Time Point Reference","type":"SDTM Dataset Variable"}},"core":"Perm","description":"Description of the fixed reference point referred to by RSELTM, RSTPTNUM, and RSTPT. Examples: \"PREVIOUS DOSE\", \"PREVIOUS MEAL\".","label":"Time Point Reference","name":"RSTPTREF","ordinal":"39","role":"Timing","simpleDatatype":"Char"},{"_links":{"modelClassVariable":{"href":"/mdr/sdtm/2-0/classes/GeneralObservations/variables/--RFTDTC","title":"Date/Time of Reference Time Point","type":"SDTM Class Variable"},"parentDataset":{"href":"/mdr/sdtmig/3-4/datasets/RS","title":"Disease Response and Clin Classification","type":"SDTM Dataset"},"parentProduct":{"href":"/mdr/sdtmig/3-4","title":"Study Data Tabulation Model Implementation Guide: Human Clinical Trials","type":"Implementation Guide"},"priorVersion":{"href":"/mdr/sdtmig/3-3/datasets/RS/variables/RSRFTDTC","title":"Date/Time of Reference Time Point","type":"SDTM Dataset Variable"},"rootItem":{"href":"/mdr/root/sdtmig/datasets/RS/variables/RSRFTDTC","title":"Version-agnostic anchor resource for SDTMIG variable RS.RSRFTDTC","type":"Root Data Element"},"self":{"href":"/mdr/sdtmig/3-4/datasets/RS/variables/RSRFTDTC","title":"Date/Time of Reference Time Point","type":"SDTM Dataset Variable"}},"core":"Perm","describedValueDomain":"ISO 8601 datetime or interval","description":"Date/time for a fixed reference time point defined by RSTPTREF in ISO 8601 character format.","label":"Date/Time of Reference Time Point","name":"RSRFTDTC","ordinal":"40","role":"Timing","simpleDatatype":"Char"},{"_links":{"modelClassVariable":{"href":"/mdr/sdtm/2-0/classes/GeneralObservations/variables/--EVLINT","title":"Evaluation Interval","type":"SDTM Class Variable"},"parentDataset":{"href":"/mdr/sdtmig/3-4/datasets/RS","title":"Disease Response and Clin Classification","type":"SDTM Dataset"},"parentProduct":{"href":"/mdr/sdtmig/3-4","title":"Study Data Tabulation Model Implementation Guide: Human Clinical Trials","type":"Implementation Guide"},"priorVersion":{"href":"/mdr/sdtmig/3-3/datasets/RS/variables/RSEVLINT","title":"Evaluation Interval","type":"SDTM Dataset Variable"},"rootItem":{"href":"/mdr/root/sdtmig/datasets/RS/variables/RSEVLINT","title":"Version-agnostic anchor resource for SDTMIG variable RS.RSEVLINT","type":"Root Data Element"},"self":{"href":"/mdr/sdtmig/3-4/datasets/RS/variables/RSEVLINT","title":"Evaluation Interval","type":"SDTM Dataset Variable"}},"core":"Perm","describedValueDomain":"ISO 8601 duration or interval","description":"Duration of interval associated with an observation such as a finding RSTESTCD, represented in ISO 8601 character format. Example: \"-P2M\" to represent a period of the past 2 months as the evaluation interval.","label":"Evaluation Interval","name":"RSEVLINT","ordinal":"41","role":"Timing","simpleDatatype":"Char"},{"_links":{"modelClassVariable":{"href":"/mdr/sdtm/2-0/classes/GeneralObservations/variables/--EVINTX","title":"Evaluation Interval Text","type":"SDTM Class Variable"},"parentDataset":{"href":"/mdr/sdtmig/3-4/datasets/RS","title":"Disease Response and Clin Classification","type":"SDTM Dataset"},"parentProduct":{"href":"/mdr/sdtmig/3-4","title":"Study Data Tabulation Model Implementation Guide: Human Clinical Trials","type":"Implementation Guide"},"priorVersion":{"href":"/mdr/sdtmig/3-3/datasets/RS/variables/RSEVINTX","title":"Evaluation Interval Text","type":"SDTM Dataset Variable"},"rootItem":{"href":"/mdr/root/sdtmig/datasets/RS/variables/RSEVINTX","title":"Version-agnostic anchor resource for SDTMIG variable RS.RSEVINTX","type":"Root Data Element"},"self":{"href":"/mdr/sdtmig/3-4/datasets/RS/variables/RSEVINTX","title":"Evaluation Interval Text","type":"SDTM Dataset Variable"}},"core":"Perm","description":"Evaluation interval associated with an observation, where the interval is not able to be represented in ISO 8601 format. Examples: \"LIFETIME\", \"LAST NIGHT\", \"RECENTLY\", \"OVER THE LAST FEW WEEKS\".","label":"Evaluation Interval Text","name":"RSEVINTX","ordinal":"42","role":"Timing","simpleDatatype":"Char"},{"_links":{"codelist":[{"href":"/mdr/root/ct/sdtmct/codelists/C66728","title":"Version-agnostic anchor resource for codelist C66728","type":"Root Value Domain"}],"modelClassVariable":{"href":"/mdr/sdtm/2-0/classes/GeneralObservations/variables/--STRTPT","title":"Start Relative to Reference Time Point","type":"SDTM Class Variable"},"parentDataset":{"href":"/mdr/sdtmig/3-4/datasets/RS","title":"Disease Response and Clin Classification","type":"SDTM Dataset"},"parentProduct":{"href":"/mdr/sdtmig/3-4","title":"Study Data Tabulation Model Implementation Guide: Human Clinical Trials","type":"Implementation Guide"},"priorVersion":{"href":"/mdr/sdtmig/3-3/datasets/RS/variables/RSSTRTPT","title":"Start Relative to Reference Time Point","type":"SDTM Dataset Variable"},"rootItem":{"href":"/mdr/root/sdtmig/datasets/RS/variables/RSSTRTPT","title":"Version-agnostic anchor resource for SDTMIG variable RS.RSSTRTPT","type":"Root Data Element"},"self":{"href":"/mdr/sdtmig/3-4/datasets/RS/variables/RSSTRTPT","title":"Start Relative to Reference Time Point","type":"SDTM Dataset Variable"}},"core":"Perm","description":"Identifies the start of the observation as being before or after the sponsor-defined reference time point defined by variable RSSTTPT. \\n Not all values of the codelist are allowable for this variable. See Section 4.4.7, Use of Relative Timing Variables.","label":"Start Relative to Reference Time Point","name":"RSSTRTPT","ordinal":"43","role":"Timing","simpleDatatype":"Char"},{"_links":{"modelClassVariable":{"href":"/mdr/sdtm/2-0/classes/GeneralObservations/variables/--STTPT","title":"Start Reference Time Point","type":"SDTM Class Variable"},"parentDataset":{"href":"/mdr/sdtmig/3-4/datasets/RS","title":"Disease Response and Clin Classification","type":"SDTM Dataset"},"parentProduct":{"href":"/mdr/sdtmig/3-4","title":"Study Data Tabulation Model Implementation Guide: Human Clinical Trials","type":"Implementation Guide"},"priorVersion":{"href":"/mdr/sdtmig/3-3/datasets/RS/variables/RSSTTPT","title":"Start Reference Time Point","type":"SDTM Dataset Variable"},"rootItem":{"href":"/mdr/root/sdtmig/datasets/RS/variables/RSSTTPT","title":"Version-agnostic anchor resource for SDTMIG variable RS.RSSTTPT","type":"Root Data Element"},"self":{"href":"/mdr/sdtmig/3-4/datasets/RS/variables/RSSTTPT","title":"Start Reference Time Point","type":"SDTM Dataset Variable"}},"core":"Perm","description":"Description or date/time in ISO 8601 character format of the sponsor-defined reference point referred to by RSSTRTPT. Examples: \"2003-12-15\", \"VISIT 1\".","label":"Start Reference Time Point","name":"RSSTTPT","ordinal":"44","role":"Timing","simpleDatatype":"Char"},{"_links":{"codelist":[{"href":"/mdr/root/ct/sdtmct/codelists/C66728","title":"Version-agnostic anchor resource for codelist C66728","type":"Root Value Domain"}],"modelClassVariable":{"href":"/mdr/sdtm/2-0/classes/GeneralObservations/variables/--ENRTPT","title":"End Relative to Reference Time Point","type":"SDTM Class Variable"},"parentDataset":{"href":"/mdr/sdtmig/3-4/datasets/RS","title":"Disease Response and Clin Classification","type":"SDTM Dataset"},"parentProduct":{"href":"/mdr/sdtmig/3-4","title":"Study Data Tabulation Model Implementation Guide: Human Clinical Trials","type":"Implementation Guide"},"priorVersion":{"href":"/mdr/sdtmig/3-3/datasets/RS/variables/RSENRTPT","title":"End Relative to Reference Time Point","type":"SDTM Dataset Variable"},"rootItem":{"href":"/mdr/root/sdtmig/datasets/RS/variables/RSENRTPT","title":"Version-agnostic anchor resource for SDTMIG variable RS.RSENRTPT","type":"Root Data Element"},"self":{"href":"/mdr/sdtmig/3-4/datasets/RS/variables/RSENRTPT","title":"End Relative to Reference Time Point","type":"SDTM Dataset Variable"}},"core":"Perm","description":"Identifies the end of the observation as being before or after the sponsor-defined reference time point defined by variable RSENTPT. \\n Not all values of the codelist are allowable for this variable. See Section 4.4.7, Use of Relative Timing Variables.","label":"End Relative to Reference Time Point","name":"RSENRTPT","ordinal":"45","role":"Timing","simpleDatatype":"Char"},{"_links":{"modelClassVariable":{"href":"/mdr/sdtm/2-0/classes/GeneralObservations/variables/--ENTPT","title":"End Reference Time Point","type":"SDTM Class Variable"},"parentDataset":{"href":"/mdr/sdtmig/3-4/datasets/RS","title":"Disease Response and Clin Classification","type":"SDTM Dataset"},"parentProduct":{"href":"/mdr/sdtmig/3-4","title":"Study Data Tabulation Model Implementation Guide: Human Clinical Trials","type":"Implementation Guide"},"priorVersion":{"href":"/mdr/sdtmig/3-3/datasets/RS/variables/RSENTPT","title":"End Reference Time Point","type":"SDTM Dataset Variable"},"rootItem":{"href":"/mdr/root/sdtmig/datasets/RS/variables/RSENTPT","title":"Version-agnostic anchor resource for SDTMIG variable RS.RSENTPT","type":"Root Data Element"},"self":{"href":"/mdr/sdtmig/3-4/datasets/RS/variables/RSENTPT","title":"End Reference Time Point","type":"SDTM Dataset Variable"}},"core":"Perm","description":"Description or date/time in ISO 8601 character format of the sponsor-defined reference point referred to by RSENRTPT. Examples: \"2003-12-25\", \"VISIT 2\".","label":"End Reference Time Point","name":"RSENTPT","ordinal":"46","role":"Timing","simpleDatatype":"Char"}],"description":"A findings domain for the assessment of disease response to therapy, or clinical classification based on published criteria.","label":"Disease Response and Clin Classification","name":"RS","ordinal":"44"}
