{"_links":{"parentClass":{"href":"/mdr/sdtmig/3-4/classes/Findings","title":"Findings","type":"Class"},"parentProduct":{"href":"/mdr/sdtmig/3-4","title":"Study Data Tabulation Model Implementation Guide: Human Clinical Trials","type":"Implementation Guide"},"priorVersion":{"href":"/mdr/sdtmig/3-3/datasets/TR","title":"Tumor/Lesion Results","type":"SDTM Dataset"},"self":{"href":"/mdr/sdtmig/3-4/datasets/TR","title":"Tumor/Lesion Results","type":"SDTM Dataset"}},"datasetStructure":"One record per tumor measurement/assessment per visit per subject per assessor","datasetVariables":[{"_links":{"modelClassVariable":{"href":"/mdr/sdtm/2-0/classes/GeneralObservations/variables/STUDYID","title":"Study Identifier","type":"SDTM Class Variable"},"parentDataset":{"href":"/mdr/sdtmig/3-4/datasets/TR","title":"Tumor/Lesion Results","type":"SDTM Dataset"},"parentProduct":{"href":"/mdr/sdtmig/3-4","title":"Study Data Tabulation Model Implementation Guide: Human Clinical Trials","type":"Implementation Guide"},"priorVersion":{"href":"/mdr/sdtmig/3-3/datasets/TR/variables/STUDYID","title":"Study Identifier","type":"SDTM Dataset Variable"},"rootItem":{"href":"/mdr/root/sdtmig/datasets/TR/variables/STUDYID","title":"Version-agnostic anchor resource for SDTMIG variable TR.STUDYID","type":"Root Data Element"},"self":{"href":"/mdr/sdtmig/3-4/datasets/TR/variables/STUDYID","title":"Study Identifier","type":"SDTM Dataset Variable"}},"core":"Req","description":"Unique identifier for a study.","label":"Study Identifier","name":"STUDYID","ordinal":"1","role":"Identifier","simpleDatatype":"Char"},{"_links":{"modelClassVariable":{"href":"/mdr/sdtm/2-0/classes/GeneralObservations/variables/DOMAIN","title":"Domain Abbreviation","type":"SDTM Class Variable"},"parentDataset":{"href":"/mdr/sdtmig/3-4/datasets/TR","title":"Tumor/Lesion Results","type":"SDTM Dataset"},"parentProduct":{"href":"/mdr/sdtmig/3-4","title":"Study Data Tabulation Model Implementation Guide: Human Clinical Trials","type":"Implementation Guide"},"priorVersion":{"href":"/mdr/sdtmig/3-3/datasets/TR/variables/DOMAIN","title":"Domain Abbreviation","type":"SDTM Dataset Variable"},"rootItem":{"href":"/mdr/root/sdtmig/datasets/TR/variables/DOMAIN","title":"Version-agnostic anchor resource for SDTMIG variable TR.DOMAIN","type":"Root Data Element"},"self":{"href":"/mdr/sdtmig/3-4/datasets/TR/variables/DOMAIN","title":"Domain Abbreviation","type":"SDTM Dataset Variable"}},"core":"Req","description":"Two-character abbreviation for the domain.","label":"Domain Abbreviation","name":"DOMAIN","ordinal":"2","role":"Identifier","simpleDatatype":"Char","valueList":["TR"]},{"_links":{"modelClassVariable":{"href":"/mdr/sdtm/2-0/classes/GeneralObservations/variables/USUBJID","title":"Unique Subject Identifier","type":"SDTM Class Variable"},"parentDataset":{"href":"/mdr/sdtmig/3-4/datasets/TR","title":"Tumor/Lesion Results","type":"SDTM Dataset"},"parentProduct":{"href":"/mdr/sdtmig/3-4","title":"Study Data Tabulation Model Implementation Guide: Human Clinical Trials","type":"Implementation Guide"},"priorVersion":{"href":"/mdr/sdtmig/3-3/datasets/TR/variables/USUBJID","title":"Unique Subject Identifier","type":"SDTM Dataset Variable"},"rootItem":{"href":"/mdr/root/sdtmig/datasets/TR/variables/USUBJID","title":"Version-agnostic anchor resource for SDTMIG variable TR.USUBJID","type":"Root Data Element"},"self":{"href":"/mdr/sdtmig/3-4/datasets/TR/variables/USUBJID","title":"Unique Subject Identifier","type":"SDTM Dataset Variable"}},"core":"Req","description":"Identifier used to uniquely identify a subject across all studies for all applications or submissions involving the product.","label":"Unique Subject Identifier","name":"USUBJID","ordinal":"3","role":"Identifier","simpleDatatype":"Char"},{"_links":{"modelClassVariable":{"href":"/mdr/sdtm/2-0/classes/GeneralObservations/variables/--SEQ","title":"Sequence Number","type":"SDTM Class Variable"},"parentDataset":{"href":"/mdr/sdtmig/3-4/datasets/TR","title":"Tumor/Lesion Results","type":"SDTM Dataset"},"parentProduct":{"href":"/mdr/sdtmig/3-4","title":"Study Data Tabulation Model Implementation Guide: Human Clinical Trials","type":"Implementation Guide"},"priorVersion":{"href":"/mdr/sdtmig/3-3/datasets/TR/variables/TRSEQ","title":"Sequence Number","type":"SDTM Dataset Variable"},"rootItem":{"href":"/mdr/root/sdtmig/datasets/TR/variables/TRSEQ","title":"Version-agnostic anchor resource for SDTMIG variable TR.TRSEQ","type":"Root Data Element"},"self":{"href":"/mdr/sdtmig/3-4/datasets/TR/variables/TRSEQ","title":"Sequence Number","type":"SDTM Dataset Variable"}},"core":"Req","description":"Sequence number given to ensure uniqueness within a dataset for a subject. May be any valid number.","label":"Sequence Number","name":"TRSEQ","ordinal":"4","role":"Identifier","simpleDatatype":"Num"},{"_links":{"modelClassVariable":{"href":"/mdr/sdtm/2-0/classes/GeneralObservations/variables/--GRPID","title":"Group ID","type":"SDTM Class Variable"},"parentDataset":{"href":"/mdr/sdtmig/3-4/datasets/TR","title":"Tumor/Lesion Results","type":"SDTM Dataset"},"parentProduct":{"href":"/mdr/sdtmig/3-4","title":"Study Data Tabulation Model Implementation Guide: Human Clinical Trials","type":"Implementation Guide"},"priorVersion":{"href":"/mdr/sdtmig/3-3/datasets/TR/variables/TRGRPID","title":"Group ID","type":"SDTM Dataset Variable"},"rootItem":{"href":"/mdr/root/sdtmig/datasets/TR/variables/TRGRPID","title":"Version-agnostic anchor resource for SDTMIG variable TR.TRGRPID","type":"Root Data Element"},"self":{"href":"/mdr/sdtmig/3-4/datasets/TR/variables/TRGRPID","title":"Group ID","type":"SDTM Dataset Variable"}},"core":"Perm","description":"Used to link together a block of related records within a subject in a domain.","label":"Group ID","name":"TRGRPID","ordinal":"5","role":"Identifier","simpleDatatype":"Char"},{"_links":{"modelClassVariable":{"href":"/mdr/sdtm/2-0/classes/GeneralObservations/variables/--REFID","title":"Reference ID","type":"SDTM Class Variable"},"parentDataset":{"href":"/mdr/sdtmig/3-4/datasets/TR","title":"Tumor/Lesion Results","type":"SDTM Dataset"},"parentProduct":{"href":"/mdr/sdtmig/3-4","title":"Study Data Tabulation Model Implementation Guide: Human Clinical Trials","type":"Implementation Guide"},"priorVersion":{"href":"/mdr/sdtmig/3-3/datasets/TR/variables/TRREFID","title":"Reference ID","type":"SDTM Dataset Variable"},"rootItem":{"href":"/mdr/root/sdtmig/datasets/TR/variables/TRREFID","title":"Version-agnostic anchor resource for SDTMIG variable TR.TRREFID","type":"Root Data Element"},"self":{"href":"/mdr/sdtmig/3-4/datasets/TR/variables/TRREFID","title":"Reference ID","type":"SDTM Dataset Variable"}},"core":"Perm","description":"Internal or external identifier.","label":"Reference ID","name":"TRREFID","ordinal":"6","role":"Identifier","simpleDatatype":"Char"},{"_links":{"modelClassVariable":{"href":"/mdr/sdtm/2-0/classes/GeneralObservations/variables/--SPID","title":"Sponsor-Defined Identifier","type":"SDTM Class Variable"},"parentDataset":{"href":"/mdr/sdtmig/3-4/datasets/TR","title":"Tumor/Lesion Results","type":"SDTM Dataset"},"parentProduct":{"href":"/mdr/sdtmig/3-4","title":"Study Data Tabulation Model Implementation Guide: Human Clinical Trials","type":"Implementation Guide"},"priorVersion":{"href":"/mdr/sdtmig/3-3/datasets/TR/variables/TRSPID","title":"Sponsor-Defined Identifier","type":"SDTM Dataset Variable"},"rootItem":{"href":"/mdr/root/sdtmig/datasets/TR/variables/TRSPID","title":"Version-agnostic anchor resource for SDTMIG variable TR.TRSPID","type":"Root Data Element"},"self":{"href":"/mdr/sdtmig/3-4/datasets/TR/variables/TRSPID","title":"Sponsor-Defined Identifier","type":"SDTM Dataset Variable"}},"core":"Perm","description":"Sponsor-defined identifier.","label":"Sponsor-Defined Identifier","name":"TRSPID","ordinal":"7","role":"Identifier","simpleDatatype":"Char"},{"_links":{"modelClassVariable":{"href":"/mdr/sdtm/2-0/classes/GeneralObservations/variables/--LNKID","title":"Link ID","type":"SDTM Class Variable"},"parentDataset":{"href":"/mdr/sdtmig/3-4/datasets/TR","title":"Tumor/Lesion Results","type":"SDTM Dataset"},"parentProduct":{"href":"/mdr/sdtmig/3-4","title":"Study Data Tabulation Model Implementation Guide: Human Clinical Trials","type":"Implementation Guide"},"priorVersion":{"href":"/mdr/sdtmig/3-3/datasets/TR/variables/TRLNKID","title":"Link ID","type":"SDTM Dataset Variable"},"rootItem":{"href":"/mdr/root/sdtmig/datasets/TR/variables/TRLNKID","title":"Version-agnostic anchor resource for SDTMIG variable TR.TRLNKID","type":"Root Data Element"},"self":{"href":"/mdr/sdtmig/3-4/datasets/TR/variables/TRLNKID","title":"Link ID","type":"SDTM Dataset Variable"}},"core":"Exp","description":"Identifier used to link the assessment result records to the individual tumor/lesion identification record in TU domain.","label":"Link ID","name":"TRLNKID","ordinal":"8","role":"Identifier","simpleDatatype":"Char"},{"_links":{"modelClassVariable":{"href":"/mdr/sdtm/2-0/classes/GeneralObservations/variables/--LNKGRP","title":"Link Group ID","type":"SDTM Class Variable"},"parentDataset":{"href":"/mdr/sdtmig/3-4/datasets/TR","title":"Tumor/Lesion Results","type":"SDTM Dataset"},"parentProduct":{"href":"/mdr/sdtmig/3-4","title":"Study Data Tabulation Model Implementation Guide: Human Clinical Trials","type":"Implementation Guide"},"priorVersion":{"href":"/mdr/sdtmig/3-3/datasets/TR/variables/TRLNKGRP","title":"Link Group","type":"SDTM Dataset Variable"},"rootItem":{"href":"/mdr/root/sdtmig/datasets/TR/variables/TRLNKGRP","title":"Version-agnostic anchor resource for SDTMIG variable TR.TRLNKGRP","type":"Root Data Element"},"self":{"href":"/mdr/sdtmig/3-4/datasets/TR/variables/TRLNKGRP","title":"Link Group","type":"SDTM Dataset Variable"}},"core":"Perm","description":"Used to group and link all of the measurement/assessment records used in the assessment of the response record in the RS domain.","label":"Link Group","name":"TRLNKGRP","ordinal":"9","role":"Identifier","simpleDatatype":"Char"},{"_links":{"codelist":[{"href":"/mdr/root/ct/sdtmct/codelists/C96779","title":"Version-agnostic anchor resource for codelist C96779","type":"Root Value Domain"}],"modelClassVariable":{"href":"/mdr/sdtm/2-0/classes/Findings/variables/--TESTCD","title":"Short Name of Measurement, Test, or Exam","type":"SDTM Class Variable"},"parentDataset":{"href":"/mdr/sdtmig/3-4/datasets/TR","title":"Tumor/Lesion Results","type":"SDTM Dataset"},"parentProduct":{"href":"/mdr/sdtmig/3-4","title":"Study Data Tabulation Model Implementation Guide: Human Clinical Trials","type":"Implementation Guide"},"priorVersion":{"href":"/mdr/sdtmig/3-3/datasets/TR/variables/TRTESTCD","title":"Tumor/Lesion Assessment Short Name","type":"SDTM Dataset Variable"},"rootItem":{"href":"/mdr/root/sdtmig/datasets/TR/variables/TRTESTCD","title":"Version-agnostic anchor resource for SDTMIG variable TR.TRTESTCD","type":"Root Data Element"},"self":{"href":"/mdr/sdtmig/3-4/datasets/TR/variables/TRTESTCD","title":"Tumor/Lesion Assessment Short Name","type":"SDTM Dataset Variable"}},"core":"Req","description":"Short name of the TEST in TRTEST. TRTESTCD cannot contain characters other than letters, numbers, or underscores. Examples: \"TUMSTATE\", \"DIAMETER\", \"LESSCIND\", \"LESRVIND\". See assumption 3.","label":"Tumor/Lesion Assessment Short Name","name":"TRTESTCD","ordinal":"10","role":"Topic","simpleDatatype":"Char"},{"_links":{"codelist":[{"href":"/mdr/root/ct/sdtmct/codelists/C96778","title":"Version-agnostic anchor resource for codelist C96778","type":"Root Value Domain"}],"modelClassVariable":{"href":"/mdr/sdtm/2-0/classes/Findings/variables/--TEST","title":"Name of Measurement, Test, or Exam","type":"SDTM Class Variable"},"parentDataset":{"href":"/mdr/sdtmig/3-4/datasets/TR","title":"Tumor/Lesion Results","type":"SDTM Dataset"},"parentProduct":{"href":"/mdr/sdtmig/3-4","title":"Study Data Tabulation Model Implementation Guide: Human Clinical Trials","type":"Implementation Guide"},"priorVersion":{"href":"/mdr/sdtmig/3-3/datasets/TR/variables/TRTEST","title":"Tumor/Lesion Assessment Test Name","type":"SDTM Dataset Variable"},"rootItem":{"href":"/mdr/root/sdtmig/datasets/TR/variables/TRTEST","title":"Version-agnostic anchor resource for SDTMIG variable TR.TRTEST","type":"Root Data Element"},"self":{"href":"/mdr/sdtmig/3-4/datasets/TR/variables/TRTEST","title":"Tumor/Lesion Assessment Test Name","type":"SDTM Dataset Variable"}},"core":"Req","description":"Verbatim name of the test or examination used to obtain the measurement or finding. The value in TRTEST cannot be longer than 40 characters. Examples: \"Tumor State\", \"Diameter\", \"Volume\", \"Lesion Success Indicator\", \"Lesion Revascularization Indicator\". See assumption 3.","label":"Tumor/Lesion Assessment Test Name","name":"TRTEST","ordinal":"11","role":"Synonym Qualifier","simpleDatatype":"Char"},{"_links":{"modelClassVariable":{"href":"/mdr/sdtm/2-0/classes/Findings/variables/--ORRES","title":"Result or Finding in Original Units","type":"SDTM Class Variable"},"parentDataset":{"href":"/mdr/sdtmig/3-4/datasets/TR","title":"Tumor/Lesion Results","type":"SDTM Dataset"},"parentProduct":{"href":"/mdr/sdtmig/3-4","title":"Study Data Tabulation Model Implementation Guide: Human Clinical Trials","type":"Implementation Guide"},"priorVersion":{"href":"/mdr/sdtmig/3-3/datasets/TR/variables/TRORRES","title":"Result or Finding in Original Units","type":"SDTM Dataset Variable"},"rootItem":{"href":"/mdr/root/sdtmig/datasets/TR/variables/TRORRES","title":"Version-agnostic anchor resource for SDTMIG variable TR.TRORRES","type":"Root Data Element"},"self":{"href":"/mdr/sdtmig/3-4/datasets/TR/variables/TRORRES","title":"Result or Finding in Original Units","type":"SDTM Dataset Variable"}},"core":"Exp","description":"Result of the tumor/lesion measurement/assessment as originally received or collected.","label":"Result or Finding in Original Units","name":"TRORRES","ordinal":"12","role":"Result Qualifier","simpleDatatype":"Char"},{"_links":{"codelist":[{"href":"/mdr/root/ct/sdtmct/codelists/C71620","title":"Version-agnostic anchor resource for codelist C71620","type":"Root Value Domain"}],"modelClassVariable":{"href":"/mdr/sdtm/2-0/classes/Findings/variables/--ORRESU","title":"Original Units","type":"SDTM Class Variable"},"parentDataset":{"href":"/mdr/sdtmig/3-4/datasets/TR","title":"Tumor/Lesion Results","type":"SDTM Dataset"},"parentProduct":{"href":"/mdr/sdtmig/3-4","title":"Study Data Tabulation Model Implementation Guide: Human Clinical Trials","type":"Implementation Guide"},"priorVersion":{"href":"/mdr/sdtmig/3-3/datasets/TR/variables/TRORRESU","title":"Original Units","type":"SDTM Dataset Variable"},"rootItem":{"href":"/mdr/root/sdtmig/datasets/TR/variables/TRORRESU","title":"Version-agnostic anchor resource for SDTMIG variable TR.TRORRESU","type":"Root Data Element"},"self":{"href":"/mdr/sdtmig/3-4/datasets/TR/variables/TRORRESU","title":"Original Units","type":"SDTM Dataset Variable"}},"core":"Exp","description":"Original units in which the data were collected. The unit for TRORRES. Example: \"mm\".","label":"Original Units","name":"TRORRESU","ordinal":"13","role":"Variable Qualifier","simpleDatatype":"Char"},{"_links":{"codelist":[{"href":"/mdr/root/ct/sdtmct/codelists/C124309","title":"Version-agnostic anchor resource for codelist C124309","type":"Root Value Domain"}],"modelClassVariable":{"href":"/mdr/sdtm/2-0/classes/Findings/variables/--STRESC","title":"Result or Finding in Standard Format","type":"SDTM Class Variable"},"parentDataset":{"href":"/mdr/sdtmig/3-4/datasets/TR","title":"Tumor/Lesion Results","type":"SDTM Dataset"},"parentProduct":{"href":"/mdr/sdtmig/3-4","title":"Study Data Tabulation Model Implementation Guide: Human Clinical Trials","type":"Implementation Guide"},"priorVersion":{"href":"/mdr/sdtmig/3-3/datasets/TR/variables/TRSTRESC","title":"Character Result/Finding in Std Format","type":"SDTM Dataset Variable"},"rootItem":{"href":"/mdr/root/sdtmig/datasets/TR/variables/TRSTRESC","title":"Version-agnostic anchor resource for SDTMIG variable TR.TRSTRESC","type":"Root Data Element"},"self":{"href":"/mdr/sdtmig/3-4/datasets/TR/variables/TRSTRESC","title":"Character Result/Finding in Std Format","type":"SDTM Dataset Variable"}},"core":"Exp","description":"Contains the result value for all findings copied or derived from TRORRES, in a standard format or standard units. TRSTRESC should store all results or findings in character format; if results are numeric, they should also be stored in numeric format in TRSTRESN.","label":"Character Result/Finding in Std Format","name":"TRSTRESC","ordinal":"14","role":"Result Qualifier","simpleDatatype":"Char"},{"_links":{"modelClassVariable":{"href":"/mdr/sdtm/2-0/classes/Findings/variables/--STRESN","title":"Numeric Result/Finding in Standard Units","type":"SDTM Class Variable"},"parentDataset":{"href":"/mdr/sdtmig/3-4/datasets/TR","title":"Tumor/Lesion Results","type":"SDTM Dataset"},"parentProduct":{"href":"/mdr/sdtmig/3-4","title":"Study Data Tabulation Model Implementation Guide: Human Clinical Trials","type":"Implementation Guide"},"priorVersion":{"href":"/mdr/sdtmig/3-3/datasets/TR/variables/TRSTRESN","title":"Numeric Result/Finding in Standard Units","type":"SDTM Dataset Variable"},"rootItem":{"href":"/mdr/root/sdtmig/datasets/TR/variables/TRSTRESN","title":"Version-agnostic anchor resource for SDTMIG variable TR.TRSTRESN","type":"Root Data Element"},"self":{"href":"/mdr/sdtmig/3-4/datasets/TR/variables/TRSTRESN","title":"Numeric Result/Finding in Standard Units","type":"SDTM Dataset Variable"}},"core":"Exp","description":"Used for continuous or numeric results or findings in standard format; copied in numeric format from TRSTRESC. TRSTRESN should store all numeric test results or findings.","label":"Numeric Result/Finding in Standard Units","name":"TRSTRESN","ordinal":"15","role":"Result Qualifier","simpleDatatype":"Num"},{"_links":{"codelist":[{"href":"/mdr/root/ct/sdtmct/codelists/C71620","title":"Version-agnostic anchor resource for codelist C71620","type":"Root Value Domain"}],"modelClassVariable":{"href":"/mdr/sdtm/2-0/classes/Findings/variables/--STRESU","title":"Standard Units","type":"SDTM Class Variable"},"parentDataset":{"href":"/mdr/sdtmig/3-4/datasets/TR","title":"Tumor/Lesion Results","type":"SDTM Dataset"},"parentProduct":{"href":"/mdr/sdtmig/3-4","title":"Study Data Tabulation Model Implementation Guide: Human Clinical Trials","type":"Implementation Guide"},"priorVersion":{"href":"/mdr/sdtmig/3-3/datasets/TR/variables/TRSTRESU","title":"Standard Units","type":"SDTM Dataset Variable"},"rootItem":{"href":"/mdr/root/sdtmig/datasets/TR/variables/TRSTRESU","title":"Version-agnostic anchor resource for SDTMIG variable TR.TRSTRESU","type":"Root Data Element"},"self":{"href":"/mdr/sdtmig/3-4/datasets/TR/variables/TRSTRESU","title":"Standard Units","type":"SDTM Dataset Variable"}},"core":"Exp","description":"Standardized unit used for TRSTRESN.","label":"Standard Units","name":"TRSTRESU","ordinal":"16","role":"Variable Qualifier","simpleDatatype":"Char"},{"_links":{"codelist":[{"href":"/mdr/root/ct/sdtmct/codelists/C66789","title":"Version-agnostic anchor resource for codelist C66789","type":"Root Value Domain"}],"modelClassVariable":{"href":"/mdr/sdtm/2-0/classes/Findings/variables/--STAT","title":"Completion Status","type":"SDTM Class Variable"},"parentDataset":{"href":"/mdr/sdtmig/3-4/datasets/TR","title":"Tumor/Lesion Results","type":"SDTM Dataset"},"parentProduct":{"href":"/mdr/sdtmig/3-4","title":"Study Data Tabulation Model Implementation Guide: Human Clinical Trials","type":"Implementation Guide"},"priorVersion":{"href":"/mdr/sdtmig/3-3/datasets/TR/variables/TRSTAT","title":"Completion Status","type":"SDTM Dataset Variable"},"rootItem":{"href":"/mdr/root/sdtmig/datasets/TR/variables/TRSTAT","title":"Version-agnostic anchor resource for SDTMIG variable TR.TRSTAT","type":"Root Data Element"},"self":{"href":"/mdr/sdtmig/3-4/datasets/TR/variables/TRSTAT","title":"Completion Status","type":"SDTM Dataset Variable"}},"core":"Perm","description":"Used to indicate a scan/image/physical exam was not performed or a tumor/lesion measurement was not taken. Should be null if a result exists in TRORRES.","label":"Completion Status","name":"TRSTAT","ordinal":"17","role":"Record Qualifier","simpleDatatype":"Char"},{"_links":{"modelClassVariable":{"href":"/mdr/sdtm/2-0/classes/Findings/variables/--REASND","title":"Reason Not Done","type":"SDTM Class Variable"},"parentDataset":{"href":"/mdr/sdtmig/3-4/datasets/TR","title":"Tumor/Lesion Results","type":"SDTM Dataset"},"parentProduct":{"href":"/mdr/sdtmig/3-4","title":"Study Data Tabulation Model Implementation Guide: Human Clinical Trials","type":"Implementation Guide"},"priorVersion":{"href":"/mdr/sdtmig/3-3/datasets/TR/variables/TRREASND","title":"Reason Not Done","type":"SDTM Dataset Variable"},"rootItem":{"href":"/mdr/root/sdtmig/datasets/TR/variables/TRREASND","title":"Version-agnostic anchor resource for SDTMIG variable TR.TRREASND","type":"Root Data Element"},"self":{"href":"/mdr/sdtmig/3-4/datasets/TR/variables/TRREASND","title":"Reason Not Done","type":"SDTM Dataset Variable"}},"core":"Perm","description":"Describes why a scan/image/physical exam was not performed or a tumor/lesion measurement was not taken. Examples: \"SCAN NOT PERFORMED\", \"NOT ASSESSABLE: IMAGE OBSCURED TUMOR\". Used in conjunction with TRSTAT when value is \"NOT DONE\".","label":"Reason Not Done","name":"TRREASND","ordinal":"18","role":"Record Qualifier","simpleDatatype":"Char"},{"_links":{"modelClassVariable":{"href":"/mdr/sdtm/2-0/classes/Findings/variables/--NAM","title":"Laboratory/Vendor Name","type":"SDTM Class Variable"},"parentDataset":{"href":"/mdr/sdtmig/3-4/datasets/TR","title":"Tumor/Lesion Results","type":"SDTM Dataset"},"parentProduct":{"href":"/mdr/sdtmig/3-4","title":"Study Data Tabulation Model Implementation Guide: Human Clinical Trials","type":"Implementation Guide"},"priorVersion":{"href":"/mdr/sdtmig/3-3/datasets/TR/variables/TRNAM","title":"Laboratory/Vendor Name","type":"SDTM Dataset Variable"},"rootItem":{"href":"/mdr/root/sdtmig/datasets/TR/variables/TRNAM","title":"Version-agnostic anchor resource for SDTMIG variable TR.TRNAM","type":"Root Data Element"},"self":{"href":"/mdr/sdtmig/3-4/datasets/TR/variables/TRNAM","title":"Laboratory/Vendor Name","type":"SDTM Dataset Variable"}},"core":"Perm","description":"The name or identifier of the vendor that performed the tumor/lesion measurement or assessment. This column can be left null when the investigator provides the complete set of data in the domain.","label":"Laboratory/Vendor Name","name":"TRNAM","ordinal":"19","role":"Record Qualifier","simpleDatatype":"Char"},{"_links":{"codelist":[{"href":"/mdr/root/ct/sdtmct/codelists/C85492","title":"Version-agnostic anchor resource for codelist C85492","type":"Root Value Domain"}],"modelClassVariable":{"href":"/mdr/sdtm/2-0/classes/Findings/variables/--METHOD","title":"Method of Test or Examination","type":"SDTM Class Variable"},"parentDataset":{"href":"/mdr/sdtmig/3-4/datasets/TR","title":"Tumor/Lesion Results","type":"SDTM Dataset"},"parentProduct":{"href":"/mdr/sdtmig/3-4","title":"Study Data Tabulation Model Implementation Guide: Human Clinical Trials","type":"Implementation Guide"},"priorVersion":{"href":"/mdr/sdtmig/3-3/datasets/TR/variables/TRMETHOD","title":"Method Used to Identify the Tumor/Lesion","type":"SDTM Dataset Variable"},"rootItem":{"href":"/mdr/root/sdtmig/datasets/TR/variables/TRMETHOD","title":"Version-agnostic anchor resource for SDTMIG variable TR.TRMETHOD","type":"Root Data Element"},"self":{"href":"/mdr/sdtmig/3-4/datasets/TR/variables/TRMETHOD","title":"Method Used to Identify the Tumor/Lesion","type":"SDTM Dataset Variable"}},"core":"Exp","description":"Method used to measure the tumor/lesion/location of interest. Examples: \"MRI\", \"CT SCAN\", \"PET SCAN\", \"Coronary angiography\".","label":"Method Used to Identify the Tumor/Lesion","name":"TRMETHOD","ordinal":"20","role":"Record Qualifier","simpleDatatype":"Char"},{"_links":{"codelist":[{"href":"/mdr/root/ct/sdtmct/codelists/C66742","title":"Version-agnostic anchor resource for codelist C66742","type":"Root Value Domain"}],"modelClassVariable":{"href":"/mdr/sdtm/2-0/classes/Findings/variables/--LOBXFL","title":"Last Observation Before Exposure Flag","type":"SDTM Class Variable"},"parentDataset":{"href":"/mdr/sdtmig/3-4/datasets/TR","title":"Tumor/Lesion Results","type":"SDTM Dataset"},"parentProduct":{"href":"/mdr/sdtmig/3-4","title":"Study Data Tabulation Model Implementation Guide: Human Clinical Trials","type":"Implementation Guide"},"priorVersion":{"href":"/mdr/sdtmig/3-3/datasets/TR/variables/TRLOBXFL","title":"Last Observation Before Exposure Flag","type":"SDTM Dataset Variable"},"rootItem":{"href":"/mdr/root/sdtmig/datasets/TR/variables/TRLOBXFL","title":"Version-agnostic anchor resource for SDTMIG variable TR.TRLOBXFL","type":"Root Data Element"},"self":{"href":"/mdr/sdtmig/3-4/datasets/TR/variables/TRLOBXFL","title":"Last Observation Before Exposure Flag","type":"SDTM Dataset Variable"}},"core":"Exp","description":"Operationally-derived indicator used to identify the last non-missing value prior to RFXSTDTC. Should be \"Y\" or null.","label":"Last Observation Before Exposure Flag","name":"TRLOBXFL","ordinal":"21","role":"Record Qualifier","simpleDatatype":"Char"},{"_links":{"codelist":[{"href":"/mdr/root/ct/sdtmct/codelists/C66742","title":"Version-agnostic anchor resource for codelist C66742","type":"Root Value Domain"}],"modelClassVariable":{"href":"/mdr/sdtm/2-0/classes/Findings/variables/--BLFL","title":"Baseline Flag","type":"SDTM Class Variable"},"parentDataset":{"href":"/mdr/sdtmig/3-4/datasets/TR","title":"Tumor/Lesion Results","type":"SDTM Dataset"},"parentProduct":{"href":"/mdr/sdtmig/3-4","title":"Study Data Tabulation Model Implementation Guide: Human Clinical Trials","type":"Implementation Guide"},"priorVersion":{"href":"/mdr/sdtmig/3-3/datasets/TR/variables/TRBLFL","title":"Baseline Flag","type":"SDTM Dataset Variable"},"rootItem":{"href":"/mdr/root/sdtmig/datasets/TR/variables/TRBLFL","title":"Version-agnostic anchor resource for SDTMIG variable TR.TRBLFL","type":"Root Data Element"},"self":{"href":"/mdr/sdtmig/3-4/datasets/TR/variables/TRBLFL","title":"Baseline Flag","type":"SDTM Dataset Variable"}},"core":"Perm","description":"Indicator used to identify a baseline value. Should be \"Y\" or null. Note that TRBLFL is retained for backward compatibility. The authoritative baseline flag for statistical analysis is in an ADaM dataset.","label":"Baseline Flag","name":"TRBLFL","ordinal":"22","role":"Record Qualifier","simpleDatatype":"Char"},{"_links":{"codelist":[{"href":"/mdr/root/ct/sdtmct/codelists/C78735","title":"Version-agnostic anchor resource for codelist C78735","type":"Root Value Domain"}],"modelClassVariable":{"href":"/mdr/sdtm/2-0/classes/Findings/variables/--EVAL","title":"Evaluator","type":"SDTM Class Variable"},"parentDataset":{"href":"/mdr/sdtmig/3-4/datasets/TR","title":"Tumor/Lesion Results","type":"SDTM Dataset"},"parentProduct":{"href":"/mdr/sdtmig/3-4","title":"Study Data Tabulation Model Implementation Guide: Human Clinical Trials","type":"Implementation Guide"},"priorVersion":{"href":"/mdr/sdtmig/3-3/datasets/TR/variables/TREVAL","title":"Evaluator","type":"SDTM Dataset Variable"},"rootItem":{"href":"/mdr/root/sdtmig/datasets/TR/variables/TREVAL","title":"Version-agnostic anchor resource for SDTMIG variable TR.TREVAL","type":"Root Data Element"},"self":{"href":"/mdr/sdtmig/3-4/datasets/TR/variables/TREVAL","title":"Evaluator","type":"SDTM Dataset Variable"}},"core":"Exp","description":"Role of the person who provided the evaluation. Used only for results that are subjective (e.g., assigned by a person or a group). Examples: \"ADJUDICATION COMMITTEE\", \"INDEPENDENT ASSESSOR\".","label":"Evaluator","name":"TREVAL","ordinal":"23","role":"Record Qualifier","simpleDatatype":"Char"},{"_links":{"codelist":[{"href":"/mdr/root/ct/sdtmct/codelists/C96777","title":"Version-agnostic anchor resource for codelist C96777","type":"Root Value Domain"}],"modelClassVariable":{"href":"/mdr/sdtm/2-0/classes/Findings/variables/--EVALID","title":"Evaluator Identifier","type":"SDTM Class Variable"},"parentDataset":{"href":"/mdr/sdtmig/3-4/datasets/TR","title":"Tumor/Lesion Results","type":"SDTM Dataset"},"parentProduct":{"href":"/mdr/sdtmig/3-4","title":"Study Data Tabulation Model Implementation Guide: Human Clinical Trials","type":"Implementation Guide"},"priorVersion":{"href":"/mdr/sdtmig/3-3/datasets/TR/variables/TREVALID","title":"Evaluator Identifier","type":"SDTM Dataset Variable"},"rootItem":{"href":"/mdr/root/sdtmig/datasets/TR/variables/TREVALID","title":"Version-agnostic anchor resource for SDTMIG variable TR.TREVALID","type":"Root Data Element"},"self":{"href":"/mdr/sdtmig/3-4/datasets/TR/variables/TREVALID","title":"Evaluator Identifier","type":"SDTM Dataset Variable"}},"core":"Perm","description":"Used to distinguish multiple evaluators with the same role recorded in TREVAL. Examples: \"RADIOLOGIST1\", \"RADIOLOGIST2\". See assumption 6.","label":"Evaluator Identifier","name":"TREVALID","ordinal":"24","role":"Variable Qualifier","simpleDatatype":"Char"},{"_links":{"codelist":[{"href":"/mdr/root/ct/sdtmct/codelists/C66742","title":"Version-agnostic anchor resource for codelist C66742","type":"Root Value Domain"}],"modelClassVariable":{"href":"/mdr/sdtm/2-0/classes/Findings/variables/--ACPTFL","title":"Accepted Record Flag","type":"SDTM Class Variable"},"parentDataset":{"href":"/mdr/sdtmig/3-4/datasets/TR","title":"Tumor/Lesion Results","type":"SDTM Dataset"},"parentProduct":{"href":"/mdr/sdtmig/3-4","title":"Study Data Tabulation Model Implementation Guide: Human Clinical Trials","type":"Implementation Guide"},"priorVersion":{"href":"/mdr/sdtmig/3-3/datasets/TR/variables/TRACPTFL","title":"Accepted Record Flag","type":"SDTM Dataset Variable"},"rootItem":{"href":"/mdr/root/sdtmig/datasets/TR/variables/TRACPTFL","title":"Version-agnostic anchor resource for SDTMIG variable TR.TRACPTFL","type":"Root Data Element"},"self":{"href":"/mdr/sdtmig/3-4/datasets/TR/variables/TRACPTFL","title":"Accepted Record Flag","type":"SDTM Dataset Variable"}},"core":"Perm","description":"In cases where more than 1 independent assessor (e.g., \"RADIOLOGIST 1\", \"RADIOLOGIST 2\", \"ADJUDICATION COMMITTEE\") provide independent assessments at the same time point, this flag identifies the record that is considered to be the accepted assessment.","label":"Accepted Record Flag","name":"TRACPTFL","ordinal":"25","role":"Record Qualifier","simpleDatatype":"Char"},{"_links":{"modelClassVariable":{"href":"/mdr/sdtm/2-0/classes/GeneralObservations/variables/VISITNUM","title":"Visit Number","type":"SDTM Class Variable"},"parentDataset":{"href":"/mdr/sdtmig/3-4/datasets/TR","title":"Tumor/Lesion Results","type":"SDTM Dataset"},"parentProduct":{"href":"/mdr/sdtmig/3-4","title":"Study Data Tabulation Model Implementation Guide: Human Clinical Trials","type":"Implementation Guide"},"priorVersion":{"href":"/mdr/sdtmig/3-3/datasets/TR/variables/VISITNUM","title":"Visit Number","type":"SDTM Dataset Variable"},"rootItem":{"href":"/mdr/root/sdtmig/datasets/TR/variables/VISITNUM","title":"Version-agnostic anchor resource for SDTMIG variable TR.VISITNUM","type":"Root Data Element"},"self":{"href":"/mdr/sdtmig/3-4/datasets/TR/variables/VISITNUM","title":"Visit Number","type":"SDTM Dataset Variable"}},"core":"Exp","description":"Clinical encounter number. Numeric version of VISIT, used for sorting.","label":"Visit Number","name":"VISITNUM","ordinal":"26","role":"Timing","simpleDatatype":"Num"},{"_links":{"modelClassVariable":{"href":"/mdr/sdtm/2-0/classes/GeneralObservations/variables/VISIT","title":"Visit Name","type":"SDTM Class Variable"},"parentDataset":{"href":"/mdr/sdtmig/3-4/datasets/TR","title":"Tumor/Lesion Results","type":"SDTM Dataset"},"parentProduct":{"href":"/mdr/sdtmig/3-4","title":"Study Data Tabulation Model Implementation Guide: Human Clinical Trials","type":"Implementation Guide"},"priorVersion":{"href":"/mdr/sdtmig/3-3/datasets/TR/variables/VISIT","title":"Visit Name","type":"SDTM Dataset Variable"},"rootItem":{"href":"/mdr/root/sdtmig/datasets/TR/variables/VISIT","title":"Version-agnostic anchor resource for SDTMIG variable TR.VISIT","type":"Root Data Element"},"self":{"href":"/mdr/sdtmig/3-4/datasets/TR/variables/VISIT","title":"Visit Name","type":"SDTM Dataset Variable"}},"core":"Perm","description":"Protocol-defined description of a clinical encounter.","label":"Visit Name","name":"VISIT","ordinal":"27","role":"Timing","simpleDatatype":"Char"},{"_links":{"modelClassVariable":{"href":"/mdr/sdtm/2-0/classes/GeneralObservations/variables/VISITDY","title":"Planned Study Day of Visit","type":"SDTM Class Variable"},"parentDataset":{"href":"/mdr/sdtmig/3-4/datasets/TR","title":"Tumor/Lesion Results","type":"SDTM Dataset"},"parentProduct":{"href":"/mdr/sdtmig/3-4","title":"Study Data Tabulation Model Implementation Guide: Human Clinical Trials","type":"Implementation Guide"},"priorVersion":{"href":"/mdr/sdtmig/3-3/datasets/TR/variables/VISITDY","title":"Planned Study Day of Visit","type":"SDTM Dataset Variable"},"rootItem":{"href":"/mdr/root/sdtmig/datasets/TR/variables/VISITDY","title":"Version-agnostic anchor resource for SDTMIG variable TR.VISITDY","type":"Root Data Element"},"self":{"href":"/mdr/sdtmig/3-4/datasets/TR/variables/VISITDY","title":"Planned Study Day of Visit","type":"SDTM Dataset Variable"}},"core":"Perm","description":"Planned study day of the visit based upon RFSTDTC in Demographics.","label":"Planned Study Day of Visit","name":"VISITDY","ordinal":"28","role":"Timing","simpleDatatype":"Num"},{"_links":{"modelClassVariable":{"href":"/mdr/sdtm/2-0/classes/GeneralObservations/variables/TAETORD","title":"Planned Order of Element Within Arm","type":"SDTM Class Variable"},"parentDataset":{"href":"/mdr/sdtmig/3-4/datasets/TR","title":"Tumor/Lesion Results","type":"SDTM Dataset"},"parentProduct":{"href":"/mdr/sdtmig/3-4","title":"Study Data Tabulation Model Implementation Guide: Human Clinical Trials","type":"Implementation Guide"},"priorVersion":{"href":"/mdr/sdtmig/3-3/datasets/TR/variables/TAETORD","title":"Planned Order of Element within Arm","type":"SDTM Dataset Variable"},"rootItem":{"href":"/mdr/root/sdtmig/datasets/TR/variables/TAETORD","title":"Version-agnostic anchor resource for SDTMIG variable TR.TAETORD","type":"Root Data Element"},"self":{"href":"/mdr/sdtmig/3-4/datasets/TR/variables/TAETORD","title":"Planned Order of Element within Arm","type":"SDTM Dataset Variable"}},"core":"Perm","description":"Epoch associated with the date/time at which the assessment was made.","label":"Planned Order of Element within Arm","name":"TAETORD","ordinal":"29","role":"Timing","simpleDatatype":"Num"},{"_links":{"codelist":[{"href":"/mdr/root/ct/sdtmct/codelists/C99079","title":"Version-agnostic anchor resource for codelist C99079","type":"Root Value Domain"}],"modelClassVariable":{"href":"/mdr/sdtm/2-0/classes/GeneralObservations/variables/EPOCH","title":"Epoch","type":"SDTM Class Variable"},"parentDataset":{"href":"/mdr/sdtmig/3-4/datasets/TR","title":"Tumor/Lesion Results","type":"SDTM Dataset"},"parentProduct":{"href":"/mdr/sdtmig/3-4","title":"Study Data Tabulation Model Implementation Guide: Human Clinical Trials","type":"Implementation Guide"},"priorVersion":{"href":"/mdr/sdtmig/3-3/datasets/TR/variables/EPOCH","title":"Epoch","type":"SDTM Dataset Variable"},"rootItem":{"href":"/mdr/root/sdtmig/datasets/TR/variables/EPOCH","title":"Version-agnostic anchor resource for SDTMIG variable TR.EPOCH","type":"Root Data Element"},"self":{"href":"/mdr/sdtmig/3-4/datasets/TR/variables/EPOCH","title":"Epoch","type":"SDTM Dataset Variable"}},"core":"Perm","description":"Epoch associated with the element in the planned sequence of elements for the arm to which the subject was assigned.","label":"Epoch","name":"EPOCH","ordinal":"30","role":"Timing","simpleDatatype":"Char"},{"_links":{"modelClassVariable":{"href":"/mdr/sdtm/2-0/classes/GeneralObservations/variables/--DTC","title":"Date/Time of Collection","type":"SDTM Class Variable"},"parentDataset":{"href":"/mdr/sdtmig/3-4/datasets/TR","title":"Tumor/Lesion Results","type":"SDTM Dataset"},"parentProduct":{"href":"/mdr/sdtmig/3-4","title":"Study Data Tabulation Model Implementation Guide: Human Clinical Trials","type":"Implementation Guide"},"priorVersion":{"href":"/mdr/sdtmig/3-3/datasets/TR/variables/TRDTC","title":"Date/Time of Tumor/Lesion Measurement","type":"SDTM Dataset Variable"},"rootItem":{"href":"/mdr/root/sdtmig/datasets/TR/variables/TRDTC","title":"Version-agnostic anchor resource for SDTMIG variable TR.TRDTC","type":"Root Data Element"},"self":{"href":"/mdr/sdtmig/3-4/datasets/TR/variables/TRDTC","title":"Date/Time of Tumor/Lesion Measurement","type":"SDTM Dataset Variable"}},"core":"Exp","describedValueDomain":"ISO 8601 datetime or interval","description":"The date of the scan/image/physical exam. TRDTC does not represent the date that the image was read to identify tumors/lesions. TRDTC also does not represent the VISIT date.","label":"Date/Time of Tumor/Lesion Measurement","name":"TRDTC","ordinal":"31","role":"Timing","simpleDatatype":"Char"},{"_links":{"modelClassVariable":{"href":"/mdr/sdtm/2-0/classes/GeneralObservations/variables/--DY","title":"Study Day of Visit/Collection/Exam","type":"SDTM Class Variable"},"parentDataset":{"href":"/mdr/sdtmig/3-4/datasets/TR","title":"Tumor/Lesion Results","type":"SDTM Dataset"},"parentProduct":{"href":"/mdr/sdtmig/3-4","title":"Study Data Tabulation Model Implementation Guide: Human Clinical Trials","type":"Implementation Guide"},"priorVersion":{"href":"/mdr/sdtmig/3-3/datasets/TR/variables/TRDY","title":"Study Day of Tumor/Lesion Measurement","type":"SDTM Dataset Variable"},"rootItem":{"href":"/mdr/root/sdtmig/datasets/TR/variables/TRDY","title":"Version-agnostic anchor resource for SDTMIG variable TR.TRDY","type":"Root Data Element"},"self":{"href":"/mdr/sdtmig/3-4/datasets/TR/variables/TRDY","title":"Study Day of Tumor/Lesion Measurement","type":"SDTM Dataset Variable"}},"core":"Perm","description":"Study day of the scan/image/physical exam, measured as integer days. Algorithm for calculations must be relative to the sponsor-defined RFSTDTC variable in Demographics.","label":"Study Day of Tumor/Lesion Measurement","name":"TRDY","ordinal":"32","role":"Timing","simpleDatatype":"Num"}],"description":"A findings domain that represents quantitative measurements and/or qualitative assessments of the tumors, lesions, or locations of interest identified in the Tumor/Lesion Identification (TU) domain.","label":"Tumor/Lesion Results","name":"TR","ordinal":"58"}
