{"_links":{"parentClass":{"href":"/mdr/sdtmig/3-2/classes/Findings","title":"Findings Observation Class","type":"Class"},"parentProduct":{"href":"/mdr/sdtmig/3-2","title":"Study Data Tabulation Model Implementation Guide: Human Clinical Trials Version 3.2 (Final)","type":"Implementation Guide"},"priorVersion":{"href":"/mdr/sdtmig/3-1-3/datasets/EG","title":"ECG","type":"SDTM Dataset"},"self":{"href":"/mdr/sdtmig/3-2/datasets/EG","title":"ECG","type":"SDTM Dataset"}},"datasetStructure":"One record per ECG observation per time point per visit per subject","datasetVariables":[{"_links":{"modelClassVariable":{"href":"/mdr/sdtm/1-4/classes/GeneralObservations/variables/STUDYID","title":"Study Identifier","type":"Class Variable"},"parentDataset":{"href":"/mdr/sdtmig/3-2/datasets/EG","title":"ECG","type":"SDTM Dataset"},"parentProduct":{"href":"/mdr/sdtmig/3-2","title":"Study Data Tabulation Model Implementation Guide: Human Clinical Trials Version 3.2 (Final)","type":"Implementation Guide"},"priorVersion":{"href":"/mdr/sdtmig/3-1-3/datasets/EG/variables/STUDYID","title":"Study Identifier","type":"SDTM Dataset Variable"},"rootItem":{"href":"/mdr/root/sdtmig/datasets/EG/variables/STUDYID","title":"Version-agnostic anchor resource for SDTMIG variable EG.STUDYID","type":"Root Data Element"},"self":{"href":"/mdr/sdtmig/3-2/datasets/EG/variables/STUDYID","title":"Study Identifier","type":"SDTM Dataset Variable"}},"core":"Req","description":"Unique identifier for a study.","label":"Study Identifier","name":"STUDYID","ordinal":"1","role":"Identifier","simpleDatatype":"Char"},{"_links":{"modelClassVariable":{"href":"/mdr/sdtm/1-4/classes/GeneralObservations/variables/DOMAIN","title":"Domain Abbreviation","type":"Class Variable"},"parentDataset":{"href":"/mdr/sdtmig/3-2/datasets/EG","title":"ECG","type":"SDTM Dataset"},"parentProduct":{"href":"/mdr/sdtmig/3-2","title":"Study Data Tabulation Model Implementation Guide: Human Clinical Trials Version 3.2 (Final)","type":"Implementation Guide"},"priorVersion":{"href":"/mdr/sdtmig/3-1-3/datasets/EG/variables/DOMAIN","title":"Domain Abbreviation","type":"SDTM Dataset Variable"},"rootItem":{"href":"/mdr/root/sdtmig/datasets/EG/variables/DOMAIN","title":"Version-agnostic anchor resource for SDTMIG variable EG.DOMAIN","type":"Root Data Element"},"self":{"href":"/mdr/sdtmig/3-2/datasets/EG/variables/DOMAIN","title":"Domain Abbreviation","type":"SDTM Dataset Variable"}},"core":"Req","description":"Two-character abbreviation for the domain.","label":"Domain Abbreviation","name":"DOMAIN","ordinal":"2","role":"Identifier","simpleDatatype":"Char","valueList":["EG"]},{"_links":{"modelClassVariable":{"href":"/mdr/sdtm/1-4/classes/GeneralObservations/variables/USUBJID","title":"Unique Subject Identifier","type":"Class Variable"},"parentDataset":{"href":"/mdr/sdtmig/3-2/datasets/EG","title":"ECG","type":"SDTM Dataset"},"parentProduct":{"href":"/mdr/sdtmig/3-2","title":"Study Data Tabulation Model Implementation Guide: Human Clinical Trials Version 3.2 (Final)","type":"Implementation Guide"},"priorVersion":{"href":"/mdr/sdtmig/3-1-3/datasets/EG/variables/USUBJID","title":"Unique Subject Identifier","type":"SDTM Dataset Variable"},"rootItem":{"href":"/mdr/root/sdtmig/datasets/EG/variables/USUBJID","title":"Version-agnostic anchor resource for SDTMIG variable EG.USUBJID","type":"Root Data Element"},"self":{"href":"/mdr/sdtmig/3-2/datasets/EG/variables/USUBJID","title":"Unique Subject Identifier","type":"SDTM Dataset Variable"}},"core":"Req","description":"Identifier used to uniquely identify a subject across all studies for all applications or submissions involving the product.","label":"Unique Subject Identifier","name":"USUBJID","ordinal":"3","role":"Identifier","simpleDatatype":"Char"},{"_links":{"modelClassVariable":{"href":"/mdr/sdtm/1-4/classes/GeneralObservations/variables/--SEQ","title":"Sequence Number","type":"Class Variable"},"parentDataset":{"href":"/mdr/sdtmig/3-2/datasets/EG","title":"ECG","type":"SDTM Dataset"},"parentProduct":{"href":"/mdr/sdtmig/3-2","title":"Study Data Tabulation Model Implementation Guide: Human Clinical Trials Version 3.2 (Final)","type":"Implementation Guide"},"priorVersion":{"href":"/mdr/sdtmig/3-1-3/datasets/EG/variables/EGSEQ","title":"Sequence Number","type":"SDTM Dataset Variable"},"rootItem":{"href":"/mdr/root/sdtmig/datasets/EG/variables/EGSEQ","title":"Version-agnostic anchor resource for SDTMIG variable EG.EGSEQ","type":"Root Data Element"},"self":{"href":"/mdr/sdtmig/3-2/datasets/EG/variables/EGSEQ","title":"Sequence Number","type":"SDTM Dataset Variable"}},"core":"Req","description":"Sequence Number given to ensure uniqueness of subject records within a domain. May be any valid number.","label":"Sequence Number","name":"EGSEQ","ordinal":"4","role":"Identifier","simpleDatatype":"Num"},{"_links":{"modelClassVariable":{"href":"/mdr/sdtm/1-4/classes/GeneralObservations/variables/--GRPID","title":"Group ID","type":"Class Variable"},"parentDataset":{"href":"/mdr/sdtmig/3-2/datasets/EG","title":"ECG","type":"SDTM Dataset"},"parentProduct":{"href":"/mdr/sdtmig/3-2","title":"Study Data Tabulation Model Implementation Guide: Human Clinical Trials Version 3.2 (Final)","type":"Implementation Guide"},"priorVersion":{"href":"/mdr/sdtmig/3-1-3/datasets/EG/variables/EGGRPID","title":"Group ID","type":"SDTM Dataset Variable"},"rootItem":{"href":"/mdr/root/sdtmig/datasets/EG/variables/EGGRPID","title":"Version-agnostic anchor resource for SDTMIG variable EG.EGGRPID","type":"Root Data Element"},"self":{"href":"/mdr/sdtmig/3-2/datasets/EG/variables/EGGRPID","title":"Group ID","type":"SDTM Dataset Variable"}},"core":"Perm","description":"Used to tie together a block of related records in a single domain for a subject.","label":"Group ID","name":"EGGRPID","ordinal":"5","role":"Identifier","simpleDatatype":"Char"},{"_links":{"modelClassVariable":{"href":"/mdr/sdtm/1-4/classes/GeneralObservations/variables/--REFID","title":"Reference ID","type":"Class Variable"},"parentDataset":{"href":"/mdr/sdtmig/3-2/datasets/EG","title":"ECG","type":"SDTM Dataset"},"parentProduct":{"href":"/mdr/sdtmig/3-2","title":"Study Data Tabulation Model Implementation Guide: Human Clinical Trials Version 3.2 (Final)","type":"Implementation Guide"},"priorVersion":{"href":"/mdr/sdtmig/3-1-3/datasets/EG/variables/EGREFID","title":"ECG Reference ID","type":"SDTM Dataset Variable"},"rootItem":{"href":"/mdr/root/sdtmig/datasets/EG/variables/EGREFID","title":"Version-agnostic anchor resource for SDTMIG variable EG.EGREFID","type":"Root Data Element"},"self":{"href":"/mdr/sdtmig/3-2/datasets/EG/variables/EGREFID","title":"ECG Reference ID","type":"SDTM Dataset Variable"}},"core":"Perm","description":"Internal or external ECG identifier. Example: UUID.","label":"ECG Reference ID","name":"EGREFID","ordinal":"6","role":"Identifier","simpleDatatype":"Char"},{"_links":{"modelClassVariable":{"href":"/mdr/sdtm/1-4/classes/GeneralObservations/variables/--SPID","title":"Sponsor-Defined Identifier","type":"Class Variable"},"parentDataset":{"href":"/mdr/sdtmig/3-2/datasets/EG","title":"ECG","type":"SDTM Dataset"},"parentProduct":{"href":"/mdr/sdtmig/3-2","title":"Study Data Tabulation Model Implementation Guide: Human Clinical Trials Version 3.2 (Final)","type":"Implementation Guide"},"priorVersion":{"href":"/mdr/sdtmig/3-1-3/datasets/EG/variables/EGSPID","title":"Sponsor-Defined Identifier","type":"SDTM Dataset Variable"},"rootItem":{"href":"/mdr/root/sdtmig/datasets/EG/variables/EGSPID","title":"Version-agnostic anchor resource for SDTMIG variable EG.EGSPID","type":"Root Data Element"},"self":{"href":"/mdr/sdtmig/3-2/datasets/EG/variables/EGSPID","title":"Sponsor-Defined Identifier","type":"SDTM Dataset Variable"}},"core":"Perm","description":"Sponsor-defined reference number. Perhaps pre-printed on the CRF as an explicit line identifier or defined in the sponsor's operational database. Example: Line number from the ECG page.","label":"Sponsor-Defined Identifier","name":"EGSPID","ordinal":"7","role":"Identifier","simpleDatatype":"Char"},{"_links":{"codelist":[{"href":"/mdr/root/ct/sdtmct/codelists/C71153","title":"Version-agnostic anchor resource for codelist C71153","type":"Root Value Domain"}],"modelClassVariable":{"href":"/mdr/sdtm/1-4/classes/Findings/variables/--TESTCD","title":"Short Name of Measurement, Test or Examination","type":"Class Variable"},"parentDataset":{"href":"/mdr/sdtmig/3-2/datasets/EG","title":"ECG","type":"SDTM Dataset"},"parentProduct":{"href":"/mdr/sdtmig/3-2","title":"Study Data Tabulation Model Implementation Guide: Human Clinical Trials Version 3.2 (Final)","type":"Implementation Guide"},"priorVersion":{"href":"/mdr/sdtmig/3-1-3/datasets/EG/variables/EGTESTCD","title":"ECG Test or Examination Short Name","type":"SDTM Dataset Variable"},"rootItem":{"href":"/mdr/root/sdtmig/datasets/EG/variables/EGTESTCD","title":"Version-agnostic anchor resource for SDTMIG variable EG.EGTESTCD","type":"Root Data Element"},"self":{"href":"/mdr/sdtmig/3-2/datasets/EG/variables/EGTESTCD","title":"ECG Test or Examination Short Name","type":"SDTM Dataset Variable"}},"core":"Req","description":"Short name of the measurement, test, or examination described in EGTEST. It can be used as a column name when converting a dataset from a vertical to a horizontal format. The value in EGTESTCD cannot be longer than 8 characters, nor can it start with a number (e.g., \"1TEST\"). EGTESTCD cannot contain characters other than letters, numbers, or underscores. Examples :PRMEAN, QTMEAN","label":"ECG Test or Examination Short Name","name":"EGTESTCD","ordinal":"8","role":"Topic","simpleDatatype":"Char"},{"_links":{"codelist":[{"href":"/mdr/root/ct/sdtmct/codelists/C71152","title":"Version-agnostic anchor resource for codelist C71152","type":"Root Value Domain"}],"modelClassVariable":{"href":"/mdr/sdtm/1-4/classes/Findings/variables/--TEST","title":"Name of Measurement, Test or Examination","type":"Class Variable"},"parentDataset":{"href":"/mdr/sdtmig/3-2/datasets/EG","title":"ECG","type":"SDTM Dataset"},"parentProduct":{"href":"/mdr/sdtmig/3-2","title":"Study Data Tabulation Model Implementation Guide: Human Clinical Trials Version 3.2 (Final)","type":"Implementation Guide"},"priorVersion":{"href":"/mdr/sdtmig/3-1-3/datasets/EG/variables/EGTEST","title":"ECG Test or Examination Name","type":"SDTM Dataset Variable"},"rootItem":{"href":"/mdr/root/sdtmig/datasets/EG/variables/EGTEST","title":"Version-agnostic anchor resource for SDTMIG variable EG.EGTEST","type":"Root Data Element"},"self":{"href":"/mdr/sdtmig/3-2/datasets/EG/variables/EGTEST","title":"ECG Test or Examination Name","type":"SDTM Dataset Variable"}},"core":"Req","description":"Verbatim name of the test or examination used to obtain the measurement or finding. The value in EGTEST cannot be longer than 40 characters. Examples: Summary (Mean) PR Duration, Summary (Mean) QT Duration","label":"ECG Test or Examination Name","name":"EGTEST","ordinal":"9","role":"Synonym Qualifier","simpleDatatype":"Char"},{"_links":{"modelClassVariable":{"href":"/mdr/sdtm/1-4/classes/Findings/variables/--CAT","title":"Category","type":"Class Variable"},"parentDataset":{"href":"/mdr/sdtmig/3-2/datasets/EG","title":"ECG","type":"SDTM Dataset"},"parentProduct":{"href":"/mdr/sdtmig/3-2","title":"Study Data Tabulation Model Implementation Guide: Human Clinical Trials Version 3.2 (Final)","type":"Implementation Guide"},"priorVersion":{"href":"/mdr/sdtmig/3-1-3/datasets/EG/variables/EGCAT","title":"Category for ECG","type":"SDTM Dataset Variable"},"rootItem":{"href":"/mdr/root/sdtmig/datasets/EG/variables/EGCAT","title":"Version-agnostic anchor resource for SDTMIG variable EG.EGCAT","type":"Root Data Element"},"self":{"href":"/mdr/sdtmig/3-2/datasets/EG/variables/EGCAT","title":"Category for ECG","type":"SDTM Dataset Variable"}},"core":"Perm","description":"Used to categorize ECG observations across subjects. Examples: MEASUREMENT, FINDING, INTERVAL","label":"Category for ECG","name":"EGCAT","ordinal":"10","role":"Grouping Qualifier","simpleDatatype":"Char"},{"_links":{"modelClassVariable":{"href":"/mdr/sdtm/1-4/classes/Findings/variables/--SCAT","title":"Subcategory","type":"Class Variable"},"parentDataset":{"href":"/mdr/sdtmig/3-2/datasets/EG","title":"ECG","type":"SDTM Dataset"},"parentProduct":{"href":"/mdr/sdtmig/3-2","title":"Study Data Tabulation Model Implementation Guide: Human Clinical Trials Version 3.2 (Final)","type":"Implementation Guide"},"priorVersion":{"href":"/mdr/sdtmig/3-1-3/datasets/EG/variables/EGSCAT","title":"Subcategory for ECG","type":"SDTM Dataset Variable"},"rootItem":{"href":"/mdr/root/sdtmig/datasets/EG/variables/EGSCAT","title":"Version-agnostic anchor resource for SDTMIG variable EG.EGSCAT","type":"Root Data Element"},"self":{"href":"/mdr/sdtmig/3-2/datasets/EG/variables/EGSCAT","title":"Subcategory for ECG","type":"SDTM Dataset Variable"}},"core":"Perm","description":"A further categorization of the ECG.","label":"Subcategory for ECG","name":"EGSCAT","ordinal":"11","role":"Grouping Qualifier","simpleDatatype":"Char"},{"_links":{"codelist":[{"href":"/mdr/root/ct/sdtmct/codelists/C71148","title":"Version-agnostic anchor resource for codelist C71148","type":"Root Value Domain"}],"modelClassVariable":{"href":"/mdr/sdtm/1-4/classes/Findings/variables/--POS","title":"Position of Subject During Observation","type":"Class Variable"},"parentDataset":{"href":"/mdr/sdtmig/3-2/datasets/EG","title":"ECG","type":"SDTM Dataset"},"parentProduct":{"href":"/mdr/sdtmig/3-2","title":"Study Data Tabulation Model Implementation Guide: Human Clinical Trials Version 3.2 (Final)","type":"Implementation Guide"},"priorVersion":{"href":"/mdr/sdtmig/3-1-3/datasets/EG/variables/EGPOS","title":"ECG Position of Subject","type":"SDTM Dataset Variable"},"rootItem":{"href":"/mdr/root/sdtmig/datasets/EG/variables/EGPOS","title":"Version-agnostic anchor resource for SDTMIG variable EG.EGPOS","type":"Root Data Element"},"self":{"href":"/mdr/sdtmig/3-2/datasets/EG/variables/EGPOS","title":"ECG Position of Subject","type":"SDTM Dataset Variable"}},"core":"Perm","description":"Position of the subject during a measurement or examination. Examples: SUPINE, STANDING, SITTING.","label":"ECG Position of Subject","name":"EGPOS","ordinal":"12","role":"Record Qualifier","simpleDatatype":"Char"},{"_links":{"modelClassVariable":{"href":"/mdr/sdtm/1-4/classes/Findings/variables/--ORRES","title":"Result or Finding in Original Units","type":"Class Variable"},"parentDataset":{"href":"/mdr/sdtmig/3-2/datasets/EG","title":"ECG","type":"SDTM Dataset"},"parentProduct":{"href":"/mdr/sdtmig/3-2","title":"Study Data Tabulation Model Implementation Guide: Human Clinical Trials Version 3.2 (Final)","type":"Implementation Guide"},"priorVersion":{"href":"/mdr/sdtmig/3-1-3/datasets/EG/variables/EGORRES","title":"Result or Finding in Original Units","type":"SDTM Dataset Variable"},"rootItem":{"href":"/mdr/root/sdtmig/datasets/EG/variables/EGORRES","title":"Version-agnostic anchor resource for SDTMIG variable EG.EGORRES","type":"Root Data Element"},"self":{"href":"/mdr/sdtmig/3-2/datasets/EG/variables/EGORRES","title":"Result or Finding in Original Units","type":"SDTM Dataset Variable"}},"core":"Exp","description":"Result of the ECG measurement or finding as originally received or collected. Examples of expected values are 62 or 0.151 when the result is an interval or measurement, or \"ATRIAL FIBRILLATION\" or \"QT PROLONGATION\" when the result is a finding.","label":"Result or Finding in Original Units","name":"EGORRES","ordinal":"13","role":"Result Qualifier","simpleDatatype":"Char"},{"_links":{"codelist":[{"href":"/mdr/root/ct/sdtmct/codelists/C71620","title":"Version-agnostic anchor resource for codelist C71620","type":"Root Value Domain"}],"modelClassVariable":{"href":"/mdr/sdtm/1-4/classes/Findings/variables/--ORRESU","title":"Original Units","type":"Class Variable"},"parentDataset":{"href":"/mdr/sdtmig/3-2/datasets/EG","title":"ECG","type":"SDTM Dataset"},"parentProduct":{"href":"/mdr/sdtmig/3-2","title":"Study Data Tabulation Model Implementation Guide: Human Clinical Trials Version 3.2 (Final)","type":"Implementation Guide"},"priorVersion":{"href":"/mdr/sdtmig/3-1-3/datasets/EG/variables/EGORRESU","title":"Original Units","type":"SDTM Dataset Variable"},"rootItem":{"href":"/mdr/root/sdtmig/datasets/EG/variables/EGORRESU","title":"Version-agnostic anchor resource for SDTMIG variable EG.EGORRESU","type":"Root Data Element"},"self":{"href":"/mdr/sdtmig/3-2/datasets/EG/variables/EGORRESU","title":"Original Units","type":"SDTM Dataset Variable"}},"core":"Perm","description":"Original units in which the data were collected. The unit for EGORRES. Examples: sec or msec.","label":"Original Units","name":"EGORRESU","ordinal":"14","role":"Variable Qualifier","simpleDatatype":"Char"},{"_links":{"codelist":[{"href":"/mdr/root/ct/sdtmct/codelists/C71150","title":"Version-agnostic anchor resource for codelist C71150","type":"Root Value Domain"}],"modelClassVariable":{"href":"/mdr/sdtm/1-4/classes/Findings/variables/--STRESC","title":"Result or Finding in Standard Format","type":"Class Variable"},"parentDataset":{"href":"/mdr/sdtmig/3-2/datasets/EG","title":"ECG","type":"SDTM Dataset"},"parentProduct":{"href":"/mdr/sdtmig/3-2","title":"Study Data Tabulation Model Implementation Guide: Human Clinical Trials Version 3.2 (Final)","type":"Implementation Guide"},"priorVersion":{"href":"/mdr/sdtmig/3-1-3/datasets/EG/variables/EGSTRESC","title":"Character Result/Finding in Std Format","type":"SDTM Dataset Variable"},"rootItem":{"href":"/mdr/root/sdtmig/datasets/EG/variables/EGSTRESC","title":"Version-agnostic anchor resource for SDTMIG variable EG.EGSTRESC","type":"Root Data Element"},"self":{"href":"/mdr/sdtmig/3-2/datasets/EG/variables/EGSTRESC","title":"Character Result/Finding in Std Format","type":"SDTM Dataset Variable"}},"core":"Exp","description":"Contains the result value for all findings, copied or derived from EGORRES in a standard format or standard units. EGSTRESC should store all results or findings in character format; if results are numeric, they should also be stored in numeric format in EGSTRESN. For example, if a test has results of \"NONE\", \"NEG\", and \"NEGATIVE\" in EGORRES and these results effectively have the same meaning, they could be represented in standard format in EGSTRESC as \"NEGATIVE\". For other examples, see general assumptions. Additional examples of result data: SINUS BRADYCARDIA, ATRIAL FLUTTER, ATRIAL FIBRILLATION.","label":"Character Result/Finding in Std Format","name":"EGSTRESC","ordinal":"15","role":"Result Qualifier","simpleDatatype":"Char"},{"_links":{"modelClassVariable":{"href":"/mdr/sdtm/1-4/classes/Findings/variables/--STRESN","title":"Numeric Result/Finding in Standard Units","type":"Class Variable"},"parentDataset":{"href":"/mdr/sdtmig/3-2/datasets/EG","title":"ECG","type":"SDTM Dataset"},"parentProduct":{"href":"/mdr/sdtmig/3-2","title":"Study Data Tabulation Model Implementation Guide: Human Clinical Trials Version 3.2 (Final)","type":"Implementation Guide"},"priorVersion":{"href":"/mdr/sdtmig/3-1-3/datasets/EG/variables/EGSTRESN","title":"Numeric Result/Finding in Standard Units","type":"SDTM Dataset Variable"},"rootItem":{"href":"/mdr/root/sdtmig/datasets/EG/variables/EGSTRESN","title":"Version-agnostic anchor resource for SDTMIG variable EG.EGSTRESN","type":"Root Data Element"},"self":{"href":"/mdr/sdtmig/3-2/datasets/EG/variables/EGSTRESN","title":"Numeric Result/Finding in Standard Units","type":"SDTM Dataset Variable"}},"core":"Perm","description":"Used for continuous or numeric results or findings in standard format; copied in numeric format from EGSTRESC. EGSTRESN should store all numeric test results or findings.","label":"Numeric Result/Finding in Standard Units","name":"EGSTRESN","ordinal":"16","role":"Result Qualifier","simpleDatatype":"Num"},{"_links":{"codelist":[{"href":"/mdr/root/ct/sdtmct/codelists/C71620","title":"Version-agnostic anchor resource for codelist C71620","type":"Root Value Domain"}],"modelClassVariable":{"href":"/mdr/sdtm/1-4/classes/Findings/variables/--STRESU","title":"Standard Units","type":"Class Variable"},"parentDataset":{"href":"/mdr/sdtmig/3-2/datasets/EG","title":"ECG","type":"SDTM Dataset"},"parentProduct":{"href":"/mdr/sdtmig/3-2","title":"Study Data Tabulation Model Implementation Guide: Human Clinical Trials Version 3.2 (Final)","type":"Implementation Guide"},"priorVersion":{"href":"/mdr/sdtmig/3-1-3/datasets/EG/variables/EGSTRESU","title":"Standard Units","type":"SDTM Dataset Variable"},"rootItem":{"href":"/mdr/root/sdtmig/datasets/EG/variables/EGSTRESU","title":"Version-agnostic anchor resource for SDTMIG variable EG.EGSTRESU","type":"Root Data Element"},"self":{"href":"/mdr/sdtmig/3-2/datasets/EG/variables/EGSTRESU","title":"Standard Units","type":"SDTM Dataset Variable"}},"core":"Perm","description":"Standardized unit used for EGSTRESC or EGSTRESN.","label":"Standard Units","name":"EGSTRESU","ordinal":"17","role":"Variable Qualifier","simpleDatatype":"Char"},{"_links":{"codelist":[{"href":"/mdr/root/ct/sdtmct/codelists/C66789","title":"Version-agnostic anchor resource for codelist C66789","type":"Root Value Domain"}],"modelClassVariable":{"href":"/mdr/sdtm/1-4/classes/Findings/variables/--STAT","title":"Completion Status","type":"Class Variable"},"parentDataset":{"href":"/mdr/sdtmig/3-2/datasets/EG","title":"ECG","type":"SDTM Dataset"},"parentProduct":{"href":"/mdr/sdtmig/3-2","title":"Study Data Tabulation Model Implementation Guide: Human Clinical Trials Version 3.2 (Final)","type":"Implementation Guide"},"priorVersion":{"href":"/mdr/sdtmig/3-1-3/datasets/EG/variables/EGSTAT","title":"Completion Status","type":"SDTM Dataset Variable"},"rootItem":{"href":"/mdr/root/sdtmig/datasets/EG/variables/EGSTAT","title":"Version-agnostic anchor resource for SDTMIG variable EG.EGSTAT","type":"Root Data Element"},"self":{"href":"/mdr/sdtmig/3-2/datasets/EG/variables/EGSTAT","title":"Completion Status","type":"SDTM Dataset Variable"}},"core":"Perm","description":"Used to indicate an ECG was not done, or an ECG measurement was not taken. Should be null if a result exists in EGORRES.","label":"Completion Status","name":"EGSTAT","ordinal":"18","role":"Record Qualifier","simpleDatatype":"Char"},{"_links":{"modelClassVariable":{"href":"/mdr/sdtm/1-4/classes/Findings/variables/--REASND","title":"Reason Not Done","type":"Class Variable"},"parentDataset":{"href":"/mdr/sdtmig/3-2/datasets/EG","title":"ECG","type":"SDTM Dataset"},"parentProduct":{"href":"/mdr/sdtmig/3-2","title":"Study Data Tabulation Model Implementation Guide: Human Clinical Trials Version 3.2 (Final)","type":"Implementation Guide"},"priorVersion":{"href":"/mdr/sdtmig/3-1-3/datasets/EG/variables/EGREASND","title":"Reason ECG Not Performed","type":"SDTM Dataset Variable"},"rootItem":{"href":"/mdr/root/sdtmig/datasets/EG/variables/EGREASND","title":"Version-agnostic anchor resource for SDTMIG variable EG.EGREASND","type":"Root Data Element"},"self":{"href":"/mdr/sdtmig/3-2/datasets/EG/variables/EGREASND","title":"Reason ECG Not Performed","type":"SDTM Dataset Variable"}},"core":"Perm","description":"Describes why a measurement or test was not performed. Examples: BROKEN EQUIPMENT or SUBJECT REFUSED. Used in conjunction with EGSTAT when value is NOT DONE.","label":"Reason ECG Not Performed","name":"EGREASND","ordinal":"19","role":"Record Qualifier","simpleDatatype":"Char"},{"_links":{"modelClassVariable":{"href":"/mdr/sdtm/1-4/classes/Findings/variables/--XFN","title":"External File Path","type":"Class Variable"},"parentDataset":{"href":"/mdr/sdtmig/3-2/datasets/EG","title":"ECG","type":"SDTM Dataset"},"parentProduct":{"href":"/mdr/sdtmig/3-2","title":"Study Data Tabulation Model Implementation Guide: Human Clinical Trials Version 3.2 (Final)","type":"Implementation Guide"},"priorVersion":{"href":"/mdr/sdtmig/3-1-3/datasets/EG/variables/EGXFN","title":"ECG External File Path","type":"SDTM Dataset Variable"},"rootItem":{"href":"/mdr/root/sdtmig/datasets/EG/variables/EGXFN","title":"Version-agnostic anchor resource for SDTMIG variable EG.EGXFN","type":"Root Data Element"},"self":{"href":"/mdr/sdtmig/3-2/datasets/EG/variables/EGXFN","title":"ECG External File Path","type":"SDTM Dataset Variable"}},"core":"Perm","description":"File name and path for the external ECG Waveform file.","label":"ECG External File Path","name":"EGXFN","ordinal":"20","role":"Record Qualifier","simpleDatatype":"Char"},{"_links":{"modelClassVariable":{"href":"/mdr/sdtm/1-4/classes/Findings/variables/--NAM","title":"Laboratory/Vendor Name","type":"Class Variable"},"parentDataset":{"href":"/mdr/sdtmig/3-2/datasets/EG","title":"ECG","type":"SDTM Dataset"},"parentProduct":{"href":"/mdr/sdtmig/3-2","title":"Study Data Tabulation Model Implementation Guide: Human Clinical Trials Version 3.2 (Final)","type":"Implementation Guide"},"priorVersion":{"href":"/mdr/sdtmig/3-1-3/datasets/EG/variables/EGNAM","title":"Vendor Name","type":"SDTM Dataset Variable"},"rootItem":{"href":"/mdr/root/sdtmig/datasets/EG/variables/EGNAM","title":"Version-agnostic anchor resource for SDTMIG variable EG.EGNAM","type":"Root Data Element"},"self":{"href":"/mdr/sdtmig/3-2/datasets/EG/variables/EGNAM","title":"Vendor Name","type":"SDTM Dataset Variable"}},"core":"Perm","description":"Name or identifier of the laboratory or vendor who provided the test results.","label":"Vendor Name","name":"EGNAM","ordinal":"21","role":"Record Qualifier","simpleDatatype":"Char"},{"_links":{"codelist":[{"href":"/mdr/root/ct/sdtmct/codelists/C74456","title":"Version-agnostic anchor resource for codelist C74456","type":"Root Value Domain"}],"modelClassVariable":{"href":"/mdr/sdtm/1-4/classes/Findings/variables/--LEAD","title":"Lead Identified to Collect Measurements","type":"Class Variable"},"parentDataset":{"href":"/mdr/sdtmig/3-2/datasets/EG","title":"ECG","type":"SDTM Dataset"},"parentProduct":{"href":"/mdr/sdtmig/3-2","title":"Study Data Tabulation Model Implementation Guide: Human Clinical Trials Version 3.2 (Final)","type":"Implementation Guide"},"priorVersion":{"href":"/mdr/sdtmig/3-1-3/datasets/EG/variables/EGLOC","title":"Lead Location Used for Measurement","type":"SDTM Dataset Variable"},"rootItem":{"href":"/mdr/root/sdtmig/datasets/EG/variables/EGLEAD","title":"Version-agnostic anchor resource for SDTMIG variable EG.EGLEAD","type":"Root Data Element"},"self":{"href":"/mdr/sdtmig/3-2/datasets/EG/variables/EGLEAD","title":"Lead Location Used for Measurement","type":"SDTM Dataset Variable"}},"core":"Perm","description":"The lead used for the measurement, examples, V1, V6, aVR, I, II, III.","label":"Lead Location Used for Measurement","name":"EGLEAD","ordinal":"22","role":"Record Qualifier","simpleDatatype":"Char"},{"_links":{"codelist":[{"href":"/mdr/root/ct/sdtmct/codelists/C71151","title":"Version-agnostic anchor resource for codelist C71151","type":"Root Value Domain"}],"modelClassVariable":{"href":"/mdr/sdtm/1-4/classes/Findings/variables/--METHOD","title":"Method of Test or Examination","type":"Class Variable"},"parentDataset":{"href":"/mdr/sdtmig/3-2/datasets/EG","title":"ECG","type":"SDTM Dataset"},"parentProduct":{"href":"/mdr/sdtmig/3-2","title":"Study Data Tabulation Model Implementation Guide: Human Clinical Trials Version 3.2 (Final)","type":"Implementation Guide"},"priorVersion":{"href":"/mdr/sdtmig/3-1-3/datasets/EG/variables/EGMETHOD","title":"Method of ECG Test","type":"SDTM Dataset Variable"},"rootItem":{"href":"/mdr/root/sdtmig/datasets/EG/variables/EGMETHOD","title":"Version-agnostic anchor resource for SDTMIG variable EG.EGMETHOD","type":"Root Data Element"},"self":{"href":"/mdr/sdtmig/3-2/datasets/EG/variables/EGMETHOD","title":"Method of ECG Test","type":"SDTM Dataset Variable"}},"core":"Perm","description":"Method of the ECG test. Examples: 12 LEAD STANDARD.","label":"Method of ECG Test","name":"EGMETHOD","ordinal":"23","role":"Record Qualifier","simpleDatatype":"Char"},{"_links":{"codelist":[{"href":"/mdr/root/ct/sdtmct/codelists/C66742","title":"Version-agnostic anchor resource for codelist C66742","type":"Root Value Domain"}],"modelClassVariable":{"href":"/mdr/sdtm/1-4/classes/Findings/variables/--BLFL","title":"Baseline Flag","type":"Class Variable"},"parentDataset":{"href":"/mdr/sdtmig/3-2/datasets/EG","title":"ECG","type":"SDTM Dataset"},"parentProduct":{"href":"/mdr/sdtmig/3-2","title":"Study Data Tabulation Model Implementation Guide: Human Clinical Trials Version 3.2 (Final)","type":"Implementation Guide"},"priorVersion":{"href":"/mdr/sdtmig/3-1-3/datasets/EG/variables/EGBLFL","title":"Baseline Flag","type":"SDTM Dataset Variable"},"rootItem":{"href":"/mdr/root/sdtmig/datasets/EG/variables/EGBLFL","title":"Version-agnostic anchor resource for SDTMIG variable EG.EGBLFL","type":"Root Data Element"},"self":{"href":"/mdr/sdtmig/3-2/datasets/EG/variables/EGBLFL","title":"Baseline Flag","type":"SDTM Dataset Variable"}},"core":"Exp","description":"Indicator used to identify a baseline value. The value should be \"Y\" or null.","label":"Baseline Flag","name":"EGBLFL","ordinal":"24","role":"Record Qualifier","simpleDatatype":"Char"},{"_links":{"codelist":[{"href":"/mdr/root/ct/sdtmct/codelists/C66742","title":"Version-agnostic anchor resource for codelist C66742","type":"Root Value Domain"}],"modelClassVariable":{"href":"/mdr/sdtm/1-4/classes/Findings/variables/--DRVFL","title":"Derived Flag","type":"Class Variable"},"parentDataset":{"href":"/mdr/sdtmig/3-2/datasets/EG","title":"ECG","type":"SDTM Dataset"},"parentProduct":{"href":"/mdr/sdtmig/3-2","title":"Study Data Tabulation Model Implementation Guide: Human Clinical Trials Version 3.2 (Final)","type":"Implementation Guide"},"priorVersion":{"href":"/mdr/sdtmig/3-1-3/datasets/EG/variables/EGDRVFL","title":"Derived Flag","type":"SDTM Dataset Variable"},"rootItem":{"href":"/mdr/root/sdtmig/datasets/EG/variables/EGDRVFL","title":"Version-agnostic anchor resource for SDTMIG variable EG.EGDRVFL","type":"Root Data Element"},"self":{"href":"/mdr/sdtmig/3-2/datasets/EG/variables/EGDRVFL","title":"Derived Flag","type":"SDTM Dataset Variable"}},"core":"Perm","description":"Used to indicate a derived record. The value should be Y or null. Records which represent the average of other records, or that do not come from the CRF, or are not as originally collected or received are examples of records that would be derived for the submission datasets. If EGDRVFL=Y, then EGORRES could be null, with EGSTRESC, and (if numeric) EGSTRESN having the derived value.","label":"Derived Flag","name":"EGDRVFL","ordinal":"25","role":"Record Qualifier","simpleDatatype":"Char"},{"_links":{"modelClassVariable":{"href":"/mdr/sdtm/1-4/classes/Findings/variables/--EVAL","title":"Evaluator","type":"Class Variable"},"parentDataset":{"href":"/mdr/sdtmig/3-2/datasets/EG","title":"ECG","type":"SDTM Dataset"},"parentProduct":{"href":"/mdr/sdtmig/3-2","title":"Study Data Tabulation Model Implementation Guide: Human Clinical Trials Version 3.2 (Final)","type":"Implementation Guide"},"priorVersion":{"href":"/mdr/sdtmig/3-1-3/datasets/EG/variables/EGEVAL","title":"Evaluator","type":"SDTM Dataset Variable"},"rootItem":{"href":"/mdr/root/sdtmig/datasets/EG/variables/EGEVAL","title":"Version-agnostic anchor resource for SDTMIG variable EG.EGEVAL","type":"Root Data Element"},"self":{"href":"/mdr/sdtmig/3-2/datasets/EG/variables/EGEVAL","title":"Evaluator","type":"SDTM Dataset Variable"}},"core":"Perm","description":"Role of the person who provided the evaluation. Used only for results that are subjective (e.g., assigned by a person or a group). Should be null for records that contain collected or derived data. Examples: INVESTIGATOR, ADJUDICATION COMMITTEE, VENDOR.","label":"Evaluator","name":"EGEVAL","ordinal":"26","role":"Record Qualifier","simpleDatatype":"Char"},{"_links":{"modelClassVariable":{"href":"/mdr/sdtm/1-4/classes/GeneralObservations/variables/VISITNUM","title":"Visit Number","type":"Class Variable"},"parentDataset":{"href":"/mdr/sdtmig/3-2/datasets/EG","title":"ECG","type":"SDTM Dataset"},"parentProduct":{"href":"/mdr/sdtmig/3-2","title":"Study Data Tabulation Model Implementation Guide: Human Clinical Trials Version 3.2 (Final)","type":"Implementation Guide"},"priorVersion":{"href":"/mdr/sdtmig/3-1-3/datasets/EG/variables/VISITNUM","title":"Visit Number","type":"SDTM Dataset Variable"},"rootItem":{"href":"/mdr/root/sdtmig/datasets/EG/variables/VISITNUM","title":"Version-agnostic anchor resource for SDTMIG variable EG.VISITNUM","type":"Root Data Element"},"self":{"href":"/mdr/sdtmig/3-2/datasets/EG/variables/VISITNUM","title":"Visit Number","type":"SDTM Dataset Variable"}},"core":"Exp","description":"1. Clinical encounter number. 2. Numeric version of VISIT, used for sorting.","label":"Visit Number","name":"VISITNUM","ordinal":"27","role":"Timing","simpleDatatype":"Num"},{"_links":{"modelClassVariable":{"href":"/mdr/sdtm/1-4/classes/GeneralObservations/variables/VISIT","title":"Visit Name","type":"Class Variable"},"parentDataset":{"href":"/mdr/sdtmig/3-2/datasets/EG","title":"ECG","type":"SDTM Dataset"},"parentProduct":{"href":"/mdr/sdtmig/3-2","title":"Study Data Tabulation Model Implementation Guide: Human Clinical Trials Version 3.2 (Final)","type":"Implementation Guide"},"priorVersion":{"href":"/mdr/sdtmig/3-1-3/datasets/EG/variables/VISIT","title":"Visit Name","type":"SDTM Dataset Variable"},"rootItem":{"href":"/mdr/root/sdtmig/datasets/EG/variables/VISIT","title":"Version-agnostic anchor resource for SDTMIG variable EG.VISIT","type":"Root Data Element"},"self":{"href":"/mdr/sdtmig/3-2/datasets/EG/variables/VISIT","title":"Visit Name","type":"SDTM Dataset Variable"}},"core":"Perm","description":"1. Protocol-defined description of clinical encounter. 2. May be used in addition to VISITNUM and/or VISITDY.","label":"Visit Name","name":"VISIT","ordinal":"28","role":"Timing","simpleDatatype":"Char"},{"_links":{"modelClassVariable":{"href":"/mdr/sdtm/1-4/classes/GeneralObservations/variables/VISITDY","title":"Planned Study Day of Visit","type":"Class Variable"},"parentDataset":{"href":"/mdr/sdtmig/3-2/datasets/EG","title":"ECG","type":"SDTM Dataset"},"parentProduct":{"href":"/mdr/sdtmig/3-2","title":"Study Data Tabulation Model Implementation Guide: Human Clinical Trials Version 3.2 (Final)","type":"Implementation Guide"},"priorVersion":{"href":"/mdr/sdtmig/3-1-3/datasets/EG/variables/VISITDY","title":"Planned Study Day of Visit","type":"SDTM Dataset Variable"},"rootItem":{"href":"/mdr/root/sdtmig/datasets/EG/variables/VISITDY","title":"Version-agnostic anchor resource for SDTMIG variable EG.VISITDY","type":"Root Data Element"},"self":{"href":"/mdr/sdtmig/3-2/datasets/EG/variables/VISITDY","title":"Planned Study Day of Visit","type":"SDTM Dataset Variable"}},"core":"Perm","description":"Planned study day of the visit based upon RFSTDTC in Demographics.","label":"Planned Study Day of Visit","name":"VISITDY","ordinal":"29","role":"Timing","simpleDatatype":"Num"},{"_links":{"modelClassVariable":{"href":"/mdr/sdtm/1-4/classes/GeneralObservations/variables/--DTC","title":"Date/Time of Collection","type":"Class Variable"},"parentDataset":{"href":"/mdr/sdtmig/3-2/datasets/EG","title":"ECG","type":"SDTM Dataset"},"parentProduct":{"href":"/mdr/sdtmig/3-2","title":"Study Data Tabulation Model Implementation Guide: Human Clinical Trials Version 3.2 (Final)","type":"Implementation Guide"},"priorVersion":{"href":"/mdr/sdtmig/3-1-3/datasets/EG/variables/EGDTC","title":"Date/Time of ECG","type":"SDTM Dataset Variable"},"rootItem":{"href":"/mdr/root/sdtmig/datasets/EG/variables/EGDTC","title":"Version-agnostic anchor resource for SDTMIG variable EG.EGDTC","type":"Root Data Element"},"self":{"href":"/mdr/sdtmig/3-2/datasets/EG/variables/EGDTC","title":"Date/Time of ECG","type":"SDTM Dataset Variable"}},"core":"Exp","describedValueDomain":"ISO 8601","description":"Date of ECG.","label":"Date/Time of ECG","name":"EGDTC","ordinal":"30","role":"Timing","simpleDatatype":"Char"},{"_links":{"modelClassVariable":{"href":"/mdr/sdtm/1-4/classes/GeneralObservations/variables/--DY","title":"Study Day of Visit/Collection/Exam","type":"Class Variable"},"parentDataset":{"href":"/mdr/sdtmig/3-2/datasets/EG","title":"ECG","type":"SDTM Dataset"},"parentProduct":{"href":"/mdr/sdtmig/3-2","title":"Study Data Tabulation Model Implementation Guide: Human Clinical Trials Version 3.2 (Final)","type":"Implementation Guide"},"priorVersion":{"href":"/mdr/sdtmig/3-1-3/datasets/EG/variables/EGDY","title":"Study Day of ECG","type":"SDTM Dataset Variable"},"rootItem":{"href":"/mdr/root/sdtmig/datasets/EG/variables/EGDY","title":"Version-agnostic anchor resource for SDTMIG variable EG.EGDY","type":"Root Data Element"},"self":{"href":"/mdr/sdtmig/3-2/datasets/EG/variables/EGDY","title":"Study Day of ECG","type":"SDTM Dataset Variable"}},"core":"Perm","description":"1. Study day of the ECG, measured as integer days. 2. Algorithm for calculations must be relative to the sponsor-defined RFSTDTC variable in Demographics.","label":"Study Day of ECG","name":"EGDY","ordinal":"31","role":"Timing","simpleDatatype":"Num"},{"_links":{"modelClassVariable":{"href":"/mdr/sdtm/1-4/classes/GeneralObservations/variables/--TPT","title":"Planned Time Point Name","type":"Class Variable"},"parentDataset":{"href":"/mdr/sdtmig/3-2/datasets/EG","title":"ECG","type":"SDTM Dataset"},"parentProduct":{"href":"/mdr/sdtmig/3-2","title":"Study Data Tabulation Model Implementation Guide: Human Clinical Trials Version 3.2 (Final)","type":"Implementation Guide"},"priorVersion":{"href":"/mdr/sdtmig/3-1-3/datasets/EG/variables/EGTPT","title":"Planned Time Point Name","type":"SDTM Dataset Variable"},"rootItem":{"href":"/mdr/root/sdtmig/datasets/EG/variables/EGTPT","title":"Version-agnostic anchor resource for SDTMIG variable EG.EGTPT","type":"Root Data Element"},"self":{"href":"/mdr/sdtmig/3-2/datasets/EG/variables/EGTPT","title":"Planned Time Point Name","type":"SDTM Dataset Variable"}},"core":"Perm","description":"1. Text Description of time when measurement should be taken. 2. This may be represented as an elapsed time relative to a fixed reference point, such as time of last dose. See EGTPTNUM and EGTPTREF. Examples: Start, 5 min post.","label":"Planned Time Point Name","name":"EGTPT","ordinal":"32","role":"Timing","simpleDatatype":"Char"},{"_links":{"modelClassVariable":{"href":"/mdr/sdtm/1-4/classes/GeneralObservations/variables/--TPTNUM","title":"Planned Time Point Number","type":"Class Variable"},"parentDataset":{"href":"/mdr/sdtmig/3-2/datasets/EG","title":"ECG","type":"SDTM Dataset"},"parentProduct":{"href":"/mdr/sdtmig/3-2","title":"Study Data Tabulation Model Implementation Guide: Human Clinical Trials Version 3.2 (Final)","type":"Implementation Guide"},"priorVersion":{"href":"/mdr/sdtmig/3-1-3/datasets/EG/variables/EGTPTNUM","title":"Planned Time Point Number","type":"SDTM Dataset Variable"},"rootItem":{"href":"/mdr/root/sdtmig/datasets/EG/variables/EGTPTNUM","title":"Version-agnostic anchor resource for SDTMIG variable EG.EGTPTNUM","type":"Root Data Element"},"self":{"href":"/mdr/sdtmig/3-2/datasets/EG/variables/EGTPTNUM","title":"Planned Time Point Number","type":"SDTM Dataset Variable"}},"core":"Perm","description":"Numerical version of EGTPT to aid in sorting.","label":"Planned Time Point Number","name":"EGTPTNUM","ordinal":"33","role":"Timing","simpleDatatype":"Num"},{"_links":{"modelClassVariable":{"href":"/mdr/sdtm/1-4/classes/GeneralObservations/variables/--ELTM","title":"Planned Elapsed Time from Time Point Ref","type":"Class Variable"},"parentDataset":{"href":"/mdr/sdtmig/3-2/datasets/EG","title":"ECG","type":"SDTM Dataset"},"parentProduct":{"href":"/mdr/sdtmig/3-2","title":"Study Data Tabulation Model Implementation Guide: Human Clinical Trials Version 3.2 (Final)","type":"Implementation Guide"},"priorVersion":{"href":"/mdr/sdtmig/3-1-3/datasets/EG/variables/EGELTM","title":"Planned Elapsed Time from Time Point Ref","type":"SDTM Dataset Variable"},"rootItem":{"href":"/mdr/root/sdtmig/datasets/EG/variables/EGELTM","title":"Version-agnostic anchor resource for SDTMIG variable EG.EGELTM","type":"Root Data Element"},"self":{"href":"/mdr/sdtmig/3-2/datasets/EG/variables/EGELTM","title":"Planned Elapsed Time from Time Point Ref","type":"SDTM Dataset Variable"}},"core":"Perm","describedValueDomain":"ISO 8601","description":"Planned elapsed time (in ISO 8601) relative to a fixed time point reference (EGTPTREF). Not a clock time or a date time variable. Represented as an ISO 8601 duration. Examples: \"-PT15M\" to represent the period of 15 minutes prior to the reference point indicated by EGTPTREF, or \"PT8H\" to represent the period of 8 hours after the reference point indicated by EGTPTREF.","label":"Planned Elapsed Time from Time Point Ref","name":"EGELTM","ordinal":"34","role":"Timing","simpleDatatype":"Char"},{"_links":{"modelClassVariable":{"href":"/mdr/sdtm/1-4/classes/GeneralObservations/variables/--TPTREF","title":"Time Point Reference","type":"Class Variable"},"parentDataset":{"href":"/mdr/sdtmig/3-2/datasets/EG","title":"ECG","type":"SDTM Dataset"},"parentProduct":{"href":"/mdr/sdtmig/3-2","title":"Study Data Tabulation Model Implementation Guide: Human Clinical Trials Version 3.2 (Final)","type":"Implementation Guide"},"priorVersion":{"href":"/mdr/sdtmig/3-1-3/datasets/EG/variables/EGTPTREF","title":"Time Point Reference","type":"SDTM Dataset Variable"},"rootItem":{"href":"/mdr/root/sdtmig/datasets/EG/variables/EGTPTREF","title":"Version-agnostic anchor resource for SDTMIG variable EG.EGTPTREF","type":"Root Data Element"},"self":{"href":"/mdr/sdtmig/3-2/datasets/EG/variables/EGTPTREF","title":"Time Point Reference","type":"SDTM Dataset Variable"}},"core":"Perm","description":"Name of the fixed reference point referred to by EGELTM, EGTPTNUM, and EGTPT. Examples: PREVIOUS DOSE, PREVIOUS MEAL.","label":"Time Point Reference","name":"EGTPTREF","ordinal":"35","role":"Timing","simpleDatatype":"Char"},{"_links":{"modelClassVariable":{"href":"/mdr/sdtm/1-4/classes/GeneralObservations/variables/--RFTDTC","title":"Date/Time of Reference Time Point","type":"Class Variable"},"parentDataset":{"href":"/mdr/sdtmig/3-2/datasets/EG","title":"ECG","type":"SDTM Dataset"},"parentProduct":{"href":"/mdr/sdtmig/3-2","title":"Study Data Tabulation Model Implementation Guide: Human Clinical Trials Version 3.2 (Final)","type":"Implementation Guide"},"priorVersion":{"href":"/mdr/sdtmig/3-1-3/datasets/EG/variables/EGRFTDTC","title":"Date/Time of Reference Time Point","type":"SDTM Dataset Variable"},"rootItem":{"href":"/mdr/root/sdtmig/datasets/EG/variables/EGRFTDTC","title":"Version-agnostic anchor resource for SDTMIG variable EG.EGRFTDTC","type":"Root Data Element"},"self":{"href":"/mdr/sdtmig/3-2/datasets/EG/variables/EGRFTDTC","title":"Date/Time of Reference Time Point","type":"SDTM Dataset Variable"}},"core":"Perm","describedValueDomain":"ISO 8601","description":"Date/time of the reference time point, EGTPTREF.","label":"Date/Time of Reference Time Point","name":"EGRFTDTC","ordinal":"36","role":"Timing","simpleDatatype":"Char"}],"description":"A findings domain that contains ECG data, including position of the subject, method of evaluation, all cycle measurements and all findings from the ECG including an overall interpretation if collected or derived. (Source: CDISC Controlled Terminology, DOMAIN, C49626, 2018-06-29)","label":"ECG","name":"EG","ordinal":"18"}
