{"_links":{"parentClass":{"href":"/mdr/sdtmig/3-4/classes/Events","title":"Events","type":"Class"},"parentProduct":{"href":"/mdr/sdtmig/3-4","title":"Study Data Tabulation Model Implementation Guide: Human Clinical Trials","type":"Implementation Guide"},"self":{"href":"/mdr/sdtmig/3-4/datasets/BE","title":"Biospecimen Events","type":"SDTM Dataset"}},"datasetStructure":"One record per instance per biospecimen event per biospecimen identifier per subject","datasetVariables":[{"_links":{"modelClassVariable":{"href":"/mdr/sdtm/2-0/classes/GeneralObservations/variables/STUDYID","title":"Study Identifier","type":"SDTM Class Variable"},"parentDataset":{"href":"/mdr/sdtmig/3-4/datasets/BE","title":"Biospecimen Events","type":"SDTM Dataset"},"parentProduct":{"href":"/mdr/sdtmig/3-4","title":"Study Data Tabulation Model Implementation Guide: Human Clinical Trials","type":"Implementation Guide"},"rootItem":{"href":"/mdr/root/sdtmig/datasets/BE/variables/STUDYID","title":"Version-agnostic anchor resource for SDTMIG variable BE.STUDYID","type":"Root Data Element"},"self":{"href":"/mdr/sdtmig/3-4/datasets/BE/variables/STUDYID","title":"Study Identifier","type":"SDTM Dataset Variable"}},"core":"Req","description":"Unique identifier for a study.","label":"Study Identifier","name":"STUDYID","ordinal":"1","role":"Identifier","simpleDatatype":"Char"},{"_links":{"modelClassVariable":{"href":"/mdr/sdtm/2-0/classes/GeneralObservations/variables/DOMAIN","title":"Domain Abbreviation","type":"SDTM Class Variable"},"parentDataset":{"href":"/mdr/sdtmig/3-4/datasets/BE","title":"Biospecimen Events","type":"SDTM Dataset"},"parentProduct":{"href":"/mdr/sdtmig/3-4","title":"Study Data Tabulation Model Implementation Guide: Human Clinical Trials","type":"Implementation Guide"},"rootItem":{"href":"/mdr/root/sdtmig/datasets/BE/variables/DOMAIN","title":"Version-agnostic anchor resource for SDTMIG variable BE.DOMAIN","type":"Root Data Element"},"self":{"href":"/mdr/sdtmig/3-4/datasets/BE/variables/DOMAIN","title":"Domain Abbreviation","type":"SDTM Dataset Variable"}},"core":"Req","description":"Two-character abbreviation for the domain.","label":"Domain Abbreviation","name":"DOMAIN","ordinal":"2","role":"Identifier","simpleDatatype":"Char","valueList":["BE"]},{"_links":{"modelClassVariable":{"href":"/mdr/sdtm/2-0/classes/GeneralObservations/variables/USUBJID","title":"Unique Subject Identifier","type":"SDTM Class Variable"},"parentDataset":{"href":"/mdr/sdtmig/3-4/datasets/BE","title":"Biospecimen Events","type":"SDTM Dataset"},"parentProduct":{"href":"/mdr/sdtmig/3-4","title":"Study Data Tabulation Model Implementation Guide: Human Clinical Trials","type":"Implementation Guide"},"rootItem":{"href":"/mdr/root/sdtmig/datasets/BE/variables/USUBJID","title":"Version-agnostic anchor resource for SDTMIG variable BE.USUBJID","type":"Root Data Element"},"self":{"href":"/mdr/sdtmig/3-4/datasets/BE/variables/USUBJID","title":"Unique Subject Identifier","type":"SDTM Dataset Variable"}},"core":"Req","description":"Identifier used to uniquely identify a subject across all studies for all applications or submissions involving the product.","label":"Unique Subject Identifier","name":"USUBJID","ordinal":"3","role":"Identifier","simpleDatatype":"Char"},{"_links":{"modelClassVariable":{"href":"/mdr/sdtm/2-0/classes/GeneralObservations/variables/SPDEVID","title":"Sponsor Device Identifier","type":"SDTM Class Variable"},"parentDataset":{"href":"/mdr/sdtmig/3-4/datasets/BE","title":"Biospecimen Events","type":"SDTM Dataset"},"parentProduct":{"href":"/mdr/sdtmig/3-4","title":"Study Data Tabulation Model Implementation Guide: Human Clinical Trials","type":"Implementation Guide"},"rootItem":{"href":"/mdr/root/sdtmig/datasets/BE/variables/SPDEVID","title":"Version-agnostic anchor resource for SDTMIG variable BE.SPDEVID","type":"Root Data Element"},"self":{"href":"/mdr/sdtmig/3-4/datasets/BE/variables/SPDEVID","title":"Sponsor Device Identifier","type":"SDTM Dataset Variable"}},"core":"Perm","description":"Sponsor-defined identifier for a device.","label":"Sponsor Device Identifier","name":"SPDEVID","ordinal":"4","role":"Identifier","simpleDatatype":"Char"},{"_links":{"modelClassVariable":{"href":"/mdr/sdtm/2-0/classes/GeneralObservations/variables/--SEQ","title":"Sequence Number","type":"SDTM Class Variable"},"parentDataset":{"href":"/mdr/sdtmig/3-4/datasets/BE","title":"Biospecimen Events","type":"SDTM Dataset"},"parentProduct":{"href":"/mdr/sdtmig/3-4","title":"Study Data Tabulation Model Implementation Guide: Human Clinical Trials","type":"Implementation Guide"},"rootItem":{"href":"/mdr/root/sdtmig/datasets/BE/variables/BESEQ","title":"Version-agnostic anchor resource for SDTMIG variable BE.BESEQ","type":"Root Data Element"},"self":{"href":"/mdr/sdtmig/3-4/datasets/BE/variables/BESEQ","title":"Sequence Number","type":"SDTM Dataset Variable"}},"core":"Req","description":"Sequence number to ensure uniqueness of records within a dataset for a subject. May be any valid number (including decimals) and does not have to start at 1.","label":"Sequence Number","name":"BESEQ","ordinal":"5","role":"Identifier","simpleDatatype":"Num"},{"_links":{"modelClassVariable":{"href":"/mdr/sdtm/2-0/classes/GeneralObservations/variables/--GRPID","title":"Group ID","type":"SDTM Class Variable"},"parentDataset":{"href":"/mdr/sdtmig/3-4/datasets/BE","title":"Biospecimen Events","type":"SDTM Dataset"},"parentProduct":{"href":"/mdr/sdtmig/3-4","title":"Study Data Tabulation Model Implementation Guide: Human Clinical Trials","type":"Implementation Guide"},"rootItem":{"href":"/mdr/root/sdtmig/datasets/BE/variables/BEGRPID","title":"Version-agnostic anchor resource for SDTMIG variable BE.BEGRPID","type":"Root Data Element"},"self":{"href":"/mdr/sdtmig/3-4/datasets/BE/variables/BEGRPID","title":"Group ID","type":"SDTM Dataset Variable"}},"core":"Perm","description":"Optional group identifier, used to link together a block of related records within a subject in a domain.","label":"Group ID","name":"BEGRPID","ordinal":"6","role":"Identifier","simpleDatatype":"Char"},{"_links":{"modelClassVariable":{"href":"/mdr/sdtm/2-0/classes/GeneralObservations/variables/--REFID","title":"Reference ID","type":"SDTM Class Variable"},"parentDataset":{"href":"/mdr/sdtmig/3-4/datasets/BE","title":"Biospecimen Events","type":"SDTM Dataset"},"parentProduct":{"href":"/mdr/sdtmig/3-4","title":"Study Data Tabulation Model Implementation Guide: Human Clinical Trials","type":"Implementation Guide"},"rootItem":{"href":"/mdr/root/sdtmig/datasets/BE/variables/BEREFID","title":"Version-agnostic anchor resource for SDTMIG variable BE.BEREFID","type":"Root Data Element"},"self":{"href":"/mdr/sdtmig/3-4/datasets/BE/variables/BEREFID","title":"Reference ID","type":"SDTM Dataset Variable"}},"core":"Exp","description":"Internal or external identifier for the specimen affected or created by the event.","label":"Reference ID","name":"BEREFID","ordinal":"7","role":"Identifier","simpleDatatype":"Char"},{"_links":{"modelClassVariable":{"href":"/mdr/sdtm/2-0/classes/GeneralObservations/variables/--SPID","title":"Sponsor-Defined Identifier","type":"SDTM Class Variable"},"parentDataset":{"href":"/mdr/sdtmig/3-4/datasets/BE","title":"Biospecimen Events","type":"SDTM Dataset"},"parentProduct":{"href":"/mdr/sdtmig/3-4","title":"Study Data Tabulation Model Implementation Guide: Human Clinical Trials","type":"Implementation Guide"},"rootItem":{"href":"/mdr/root/sdtmig/datasets/BE/variables/BESPID","title":"Version-agnostic anchor resource for SDTMIG variable BE.BESPID","type":"Root Data Element"},"self":{"href":"/mdr/sdtmig/3-4/datasets/BE/variables/BESPID","title":"Sponsor-Defined Identifier","type":"SDTM Dataset Variable"}},"core":"Perm","description":"Optional sponsor-defined reference number. Example: Line number on a CRF page.","label":"Sponsor-Defined Identifier","name":"BESPID","ordinal":"8","role":"Identifier","simpleDatatype":"Char"},{"_links":{"modelClassVariable":{"href":"/mdr/sdtm/2-0/classes/Events/variables/--TERM","title":"Reported Term","type":"SDTM Class Variable"},"parentDataset":{"href":"/mdr/sdtmig/3-4/datasets/BE","title":"Biospecimen Events","type":"SDTM Dataset"},"parentProduct":{"href":"/mdr/sdtmig/3-4","title":"Study Data Tabulation Model Implementation Guide: Human Clinical Trials","type":"Implementation Guide"},"rootItem":{"href":"/mdr/root/sdtmig/datasets/BE/variables/BETERM","title":"Version-agnostic anchor resource for SDTMIG variable BE.BETERM","type":"Root Data Element"},"self":{"href":"/mdr/sdtmig/3-4/datasets/BE/variables/BETERM","title":"Reported Term for the Biospecimen Event","type":"SDTM Dataset Variable"}},"core":"Req","description":"Topic variable for an event observation, which is the verbatim or pre-specified name of the event.","label":"Reported Term for the Biospecimen Event","name":"BETERM","ordinal":"9","role":"Topic","simpleDatatype":"Char"},{"_links":{"modelClassVariable":{"href":"/mdr/sdtm/2-0/classes/Events/variables/--MODIFY","title":"Modified Reported Term","type":"SDTM Class Variable"},"parentDataset":{"href":"/mdr/sdtmig/3-4/datasets/BE","title":"Biospecimen Events","type":"SDTM Dataset"},"parentProduct":{"href":"/mdr/sdtmig/3-4","title":"Study Data Tabulation Model Implementation Guide: Human Clinical Trials","type":"Implementation Guide"},"rootItem":{"href":"/mdr/root/sdtmig/datasets/BE/variables/BEMODIFY","title":"Version-agnostic anchor resource for SDTMIG variable BE.BEMODIFY","type":"Root Data Element"},"self":{"href":"/mdr/sdtmig/3-4/datasets/BE/variables/BEMODIFY","title":"Modified Reported Term","type":"SDTM Dataset Variable"}},"core":"Perm","description":"If the value for BETERM is modified for coding purposes, then the modified text is placed here.","label":"Modified Reported Term","name":"BEMODIFY","ordinal":"10","role":"Synonym Qualifier","simpleDatatype":"Char"},{"_links":{"codelist":[{"href":"/mdr/root/ct/sdtmct/codelists/C124297","title":"Version-agnostic anchor resource for codelist C124297","type":"Root Value Domain"}],"modelClassVariable":{"href":"/mdr/sdtm/2-0/classes/Events/variables/--DECOD","title":"Dictionary-Derived Term","type":"SDTM Class Variable"},"parentDataset":{"href":"/mdr/sdtmig/3-4/datasets/BE","title":"Biospecimen Events","type":"SDTM Dataset"},"parentProduct":{"href":"/mdr/sdtmig/3-4","title":"Study Data Tabulation Model Implementation Guide: Human Clinical Trials","type":"Implementation Guide"},"rootItem":{"href":"/mdr/root/sdtmig/datasets/BE/variables/BEDECOD","title":"Version-agnostic anchor resource for SDTMIG variable BE.BEDECOD","type":"Root Data Element"},"self":{"href":"/mdr/sdtmig/3-4/datasets/BE/variables/BEDECOD","title":"Dictionary-Derived Term","type":"SDTM Dataset Variable"}},"core":"Perm","description":"Dictionary-derived text description of BETERM or BEMODIFY, if applicable.","label":"Dictionary-Derived Term","name":"BEDECOD","ordinal":"11","role":"Synonym Qualifier","simpleDatatype":"Char"},{"_links":{"modelClassVariable":{"href":"/mdr/sdtm/2-0/classes/Events/variables/--CAT","title":"Category","type":"SDTM Class Variable"},"parentDataset":{"href":"/mdr/sdtmig/3-4/datasets/BE","title":"Biospecimen Events","type":"SDTM Dataset"},"parentProduct":{"href":"/mdr/sdtmig/3-4","title":"Study Data Tabulation Model Implementation Guide: Human Clinical Trials","type":"Implementation Guide"},"rootItem":{"href":"/mdr/root/sdtmig/datasets/BE/variables/BECAT","title":"Version-agnostic anchor resource for SDTMIG variable BE.BECAT","type":"Root Data Element"},"self":{"href":"/mdr/sdtmig/3-4/datasets/BE/variables/BECAT","title":"Category for Biospecimen Event","type":"SDTM Dataset Variable"}},"core":"Perm","description":"Used to define a category of topic-variable values. Example: COLLECTION, PREPARATION, TRANSPORT.","label":"Category for Biospecimen Event","name":"BECAT","ordinal":"12","role":"Grouping Qualifier","simpleDatatype":"Char"},{"_links":{"modelClassVariable":{"href":"/mdr/sdtm/2-0/classes/Events/variables/--SCAT","title":"Subcategory","type":"SDTM Class Variable"},"parentDataset":{"href":"/mdr/sdtmig/3-4/datasets/BE","title":"Biospecimen Events","type":"SDTM Dataset"},"parentProduct":{"href":"/mdr/sdtmig/3-4","title":"Study Data Tabulation Model Implementation Guide: Human Clinical Trials","type":"Implementation Guide"},"rootItem":{"href":"/mdr/root/sdtmig/datasets/BE/variables/BESCAT","title":"Version-agnostic anchor resource for SDTMIG variable BE.BESCAT","type":"Root Data Element"},"self":{"href":"/mdr/sdtmig/3-4/datasets/BE/variables/BESCAT","title":"Subcategory for Biospecimen Event","type":"SDTM Dataset Variable"}},"core":"Perm","description":"A further categorization of BECAT values.","label":"Subcategory for Biospecimen Event","name":"BESCAT","ordinal":"13","role":"Grouping Qualifier","simpleDatatype":"Char"},{"_links":{"codelist":[{"href":"/mdr/root/ct/sdtmct/codelists/C74456","title":"Version-agnostic anchor resource for codelist C74456","type":"Root Value Domain"}],"modelClassVariable":{"href":"/mdr/sdtm/2-0/classes/Events/variables/--LOC","title":"Location of Event","type":"SDTM Class Variable"},"parentDataset":{"href":"/mdr/sdtmig/3-4/datasets/BE","title":"Biospecimen Events","type":"SDTM Dataset"},"parentProduct":{"href":"/mdr/sdtmig/3-4","title":"Study Data Tabulation Model Implementation Guide: Human Clinical Trials","type":"Implementation Guide"},"rootItem":{"href":"/mdr/root/sdtmig/datasets/BE/variables/BELOC","title":"Version-agnostic anchor resource for SDTMIG variable BE.BELOC","type":"Root Data Element"},"self":{"href":"/mdr/sdtmig/3-4/datasets/BE/variables/BELOC","title":"Anatomical Location of Event","type":"SDTM Dataset Variable"}},"core":"Perm","description":"Describes the anatomical location relevant for the event (e.g. BRAIN, LUNG).","label":"Anatomical Location of Event","name":"BELOC","ordinal":"14","role":"Record Qualifier","simpleDatatype":"Char"},{"_links":{"modelClassVariable":{"href":"/mdr/sdtm/2-0/classes/Events/variables/--PARTY","title":"Accountable Party","type":"SDTM Class Variable"},"parentDataset":{"href":"/mdr/sdtmig/3-4/datasets/BE","title":"Biospecimen Events","type":"SDTM Dataset"},"parentProduct":{"href":"/mdr/sdtmig/3-4","title":"Study Data Tabulation Model Implementation Guide: Human Clinical Trials","type":"Implementation Guide"},"rootItem":{"href":"/mdr/root/sdtmig/datasets/BE/variables/BEPARTY","title":"Version-agnostic anchor resource for SDTMIG variable BE.BEPARTY","type":"Root Data Element"},"self":{"href":"/mdr/sdtmig/3-4/datasets/BE/variables/BEPARTY","title":"Accountable Party","type":"SDTM Dataset Variable"}},"core":"Perm","description":"Party accountable for the transferable object (e.g. specimen) as a result of the activity performed in the associated BETERM variable. The party could be an individual (e.g., subject), an organization (e.g., sponsor), or a location that is a proxy for an individual or organization (e.g., site). It is usually a somewhat general term that is further identified in the BEPRTYID variable.","label":"Accountable Party","name":"BEPARTY","ordinal":"15","role":"Record Qualifier","simpleDatatype":"Char"},{"_links":{"modelClassVariable":{"href":"/mdr/sdtm/2-0/classes/Events/variables/--PRTYID","title":"Identification of Accountable Party","type":"SDTM Class Variable"},"parentDataset":{"href":"/mdr/sdtmig/3-4/datasets/BE","title":"Biospecimen Events","type":"SDTM Dataset"},"parentProduct":{"href":"/mdr/sdtmig/3-4","title":"Study Data Tabulation Model Implementation Guide: Human Clinical Trials","type":"Implementation Guide"},"rootItem":{"href":"/mdr/root/sdtmig/datasets/BE/variables/BEPRTYID","title":"Version-agnostic anchor resource for SDTMIG variable BE.BEPRTYID","type":"Root Data Element"},"self":{"href":"/mdr/sdtmig/3-4/datasets/BE/variables/BEPRTYID","title":"Identification of Accountable Party","type":"SDTM Dataset Variable"}},"core":"Perm","description":"Identification of the specific party accountable for the transferable object (e.g. Specimen) after the action in BETERM is taken. Used in conjunction with BEPARTY.","label":"Identification of Accountable Party","name":"BEPRTYID","ordinal":"16","role":"Record Qualifier","simpleDatatype":"Char"},{"_links":{"modelClassVariable":{"href":"/mdr/sdtm/2-0/classes/GeneralObservations/variables/VISITNUM","title":"Visit Number","type":"SDTM Class Variable"},"parentDataset":{"href":"/mdr/sdtmig/3-4/datasets/BE","title":"Biospecimen Events","type":"SDTM Dataset"},"parentProduct":{"href":"/mdr/sdtmig/3-4","title":"Study Data Tabulation Model Implementation Guide: Human Clinical Trials","type":"Implementation Guide"},"rootItem":{"href":"/mdr/root/sdtmig/datasets/BE/variables/VISITNUM","title":"Version-agnostic anchor resource for SDTMIG variable BE.VISITNUM","type":"Root Data Element"},"self":{"href":"/mdr/sdtmig/3-4/datasets/BE/variables/VISITNUM","title":"Visit Number","type":"SDTM Dataset Variable"}},"core":"Exp","description":"Clinical encounter number. Numeric version of VISIT, used for sorting.","label":"Visit Number","name":"VISITNUM","ordinal":"17","role":"Timing","simpleDatatype":"Num"},{"_links":{"modelClassVariable":{"href":"/mdr/sdtm/2-0/classes/GeneralObservations/variables/VISIT","title":"Visit Name","type":"SDTM Class Variable"},"parentDataset":{"href":"/mdr/sdtmig/3-4/datasets/BE","title":"Biospecimen Events","type":"SDTM Dataset"},"parentProduct":{"href":"/mdr/sdtmig/3-4","title":"Study Data Tabulation Model Implementation Guide: Human Clinical Trials","type":"Implementation Guide"},"rootItem":{"href":"/mdr/root/sdtmig/datasets/BE/variables/VISIT","title":"Version-agnostic anchor resource for SDTMIG variable BE.VISIT","type":"Root Data Element"},"self":{"href":"/mdr/sdtmig/3-4/datasets/BE/variables/VISIT","title":"Visit Name","type":"SDTM Dataset Variable"}},"core":"Perm","description":"Protocol-defined description of clinical encounter.","label":"Visit Name","name":"VISIT","ordinal":"18","role":"Timing","simpleDatatype":"Char"},{"_links":{"modelClassVariable":{"href":"/mdr/sdtm/2-0/classes/GeneralObservations/variables/VISITDY","title":"Planned Study Day of Visit","type":"SDTM Class Variable"},"parentDataset":{"href":"/mdr/sdtmig/3-4/datasets/BE","title":"Biospecimen Events","type":"SDTM Dataset"},"parentProduct":{"href":"/mdr/sdtmig/3-4","title":"Study Data Tabulation Model Implementation Guide: Human Clinical Trials","type":"Implementation Guide"},"rootItem":{"href":"/mdr/root/sdtmig/datasets/BE/variables/VISITDY","title":"Version-agnostic anchor resource for SDTMIG variable BE.VISITDY","type":"Root Data Element"},"self":{"href":"/mdr/sdtmig/3-4/datasets/BE/variables/VISITDY","title":"Planned Study Day of Visit","type":"SDTM Dataset Variable"}},"core":"Perm","description":"Planned study day of VISIT. Should be an integer.","label":"Planned Study Day of Visit","name":"VISITDY","ordinal":"19","role":"Timing","simpleDatatype":"Num"},{"_links":{"modelClassVariable":{"href":"/mdr/sdtm/2-0/classes/GeneralObservations/variables/--DTC","title":"Date/Time of Collection","type":"SDTM Class Variable"},"parentDataset":{"href":"/mdr/sdtmig/3-4/datasets/BE","title":"Biospecimen Events","type":"SDTM Dataset"},"parentProduct":{"href":"/mdr/sdtmig/3-4","title":"Study Data Tabulation Model Implementation Guide: Human Clinical Trials","type":"Implementation Guide"},"rootItem":{"href":"/mdr/root/sdtmig/datasets/BE/variables/BEDTC","title":"Version-agnostic anchor resource for SDTMIG variable BE.BEDTC","type":"Root Data Element"},"self":{"href":"/mdr/sdtmig/3-4/datasets/BE/variables/BEDTC","title":"Date/Time of Specimen Collection","type":"SDTM Dataset Variable"}},"core":"Exp","describedValueDomain":"ISO 8601 datetime or interval","description":"Date and time of specimen collection.","label":"Date/Time of Specimen Collection","name":"BEDTC","ordinal":"20","role":"Timing","simpleDatatype":"Char"},{"_links":{"modelClassVariable":{"href":"/mdr/sdtm/2-0/classes/GeneralObservations/variables/--STDTC","title":"Start Date/Time of Observation","type":"SDTM Class Variable"},"parentDataset":{"href":"/mdr/sdtmig/3-4/datasets/BE","title":"Biospecimen Events","type":"SDTM Dataset"},"parentProduct":{"href":"/mdr/sdtmig/3-4","title":"Study Data Tabulation Model Implementation Guide: Human Clinical Trials","type":"Implementation Guide"},"rootItem":{"href":"/mdr/root/sdtmig/datasets/BE/variables/BESTDTC","title":"Version-agnostic anchor resource for SDTMIG variable BE.BESTDTC","type":"Root Data Element"},"self":{"href":"/mdr/sdtmig/3-4/datasets/BE/variables/BESTDTC","title":"Start Date/Time of Biospecimen Event","type":"SDTM Dataset Variable"}},"core":"Exp","describedValueDomain":"ISO 8601 datetime or interval","description":"Start date/time of the event.","label":"Start Date/Time of Biospecimen Event","name":"BESTDTC","ordinal":"21","role":"Timing","simpleDatatype":"Char"},{"_links":{"modelClassVariable":{"href":"/mdr/sdtm/2-0/classes/GeneralObservations/variables/--ENDTC","title":"End Date/Time of Observation","type":"SDTM Class Variable"},"parentDataset":{"href":"/mdr/sdtmig/3-4/datasets/BE","title":"Biospecimen Events","type":"SDTM Dataset"},"parentProduct":{"href":"/mdr/sdtmig/3-4","title":"Study Data Tabulation Model Implementation Guide: Human Clinical Trials","type":"Implementation Guide"},"rootItem":{"href":"/mdr/root/sdtmig/datasets/BE/variables/BEENDTC","title":"Version-agnostic anchor resource for SDTMIG variable BE.BEENDTC","type":"Root Data Element"},"self":{"href":"/mdr/sdtmig/3-4/datasets/BE/variables/BEENDTC","title":"End Date/Time of Biospecimen Event","type":"SDTM Dataset Variable"}},"core":"Exp","describedValueDomain":"ISO 8601 datetime or interval","description":"End date/time of the event.","label":"End Date/Time of Biospecimen Event","name":"BEENDTC","ordinal":"22","role":"Timing","simpleDatatype":"Char"},{"_links":{"modelClassVariable":{"href":"/mdr/sdtm/2-0/classes/GeneralObservations/variables/--STDY","title":"Study Day of Start of Observation","type":"SDTM Class Variable"},"parentDataset":{"href":"/mdr/sdtmig/3-4/datasets/BE","title":"Biospecimen Events","type":"SDTM Dataset"},"parentProduct":{"href":"/mdr/sdtmig/3-4","title":"Study Data Tabulation Model Implementation Guide: Human Clinical Trials","type":"Implementation Guide"},"rootItem":{"href":"/mdr/root/sdtmig/datasets/BE/variables/BESTDY","title":"Version-agnostic anchor resource for SDTMIG variable BE.BESTDY","type":"Root Data Element"},"self":{"href":"/mdr/sdtmig/3-4/datasets/BE/variables/BESTDY","title":"Study Day of Start of Biospecimen Event","type":"SDTM Dataset Variable"}},"core":"Perm","description":"Actual study day of start of observation expressed in integer days relative to the sponsor-defined RFSTDTC in Demographics.","label":"Study Day of Start of Biospecimen Event","name":"BESTDY","ordinal":"23","role":"Timing","simpleDatatype":"Num"},{"_links":{"modelClassVariable":{"href":"/mdr/sdtm/2-0/classes/GeneralObservations/variables/--ENDY","title":"Study Day of End of Observation","type":"SDTM Class Variable"},"parentDataset":{"href":"/mdr/sdtmig/3-4/datasets/BE","title":"Biospecimen Events","type":"SDTM Dataset"},"parentProduct":{"href":"/mdr/sdtmig/3-4","title":"Study Data Tabulation Model Implementation Guide: Human Clinical Trials","type":"Implementation Guide"},"rootItem":{"href":"/mdr/root/sdtmig/datasets/BE/variables/BEENDY","title":"Version-agnostic anchor resource for SDTMIG variable BE.BEENDY","type":"Root Data Element"},"self":{"href":"/mdr/sdtmig/3-4/datasets/BE/variables/BEENDY","title":"Study Day of End of Biospecimen Event","type":"SDTM Dataset Variable"}},"core":"Perm","description":"Actual study day of end of observation expressed in integer days relative to the sponsor-defined RFSTDTC in Demographics.","label":"Study Day of End of Biospecimen Event","name":"BEENDY","ordinal":"24","role":"Timing","simpleDatatype":"Num"},{"_links":{"modelClassVariable":{"href":"/mdr/sdtm/2-0/classes/GeneralObservations/variables/--DUR","title":"Collected Duration","type":"SDTM Class Variable"},"parentDataset":{"href":"/mdr/sdtmig/3-4/datasets/BE","title":"Biospecimen Events","type":"SDTM Dataset"},"parentProduct":{"href":"/mdr/sdtmig/3-4","title":"Study Data Tabulation Model Implementation Guide: Human Clinical Trials","type":"Implementation Guide"},"rootItem":{"href":"/mdr/root/sdtmig/datasets/BE/variables/BEDUR","title":"Version-agnostic anchor resource for SDTMIG variable BE.BEDUR","type":"Root Data Element"},"self":{"href":"/mdr/sdtmig/3-4/datasets/BE/variables/BEDUR","title":"Duration of Biospecimen Event","type":"SDTM Dataset Variable"}},"core":"Perm","describedValueDomain":"ISO 8601 duration","description":"Collected duration and unit of a biospecimen event. Used only if collected on the CRF and not derived from start and end date/times. Example: P1DT2H (for 1 day, 2 hours).","label":"Duration of Biospecimen Event","name":"BEDUR","ordinal":"25","role":"Timing","simpleDatatype":"Char"}],"description":"An events domain that documents actions taken that affect or may affect a specimen (e.g., specimen collection, freezing and thawing, aliquoting, transportation).","label":"Biospecimen Events","name":"BE","ordinal":"3"}
