{"_links":{"parentClass":{"href":"/mdr/sdtmig/3-3/classes/Findings","title":"Findings Observation Class","type":"Class"},"parentProduct":{"href":"/mdr/sdtmig/3-3","title":"Study Data Tabulation Model Implementation Guide: Human Clinical Trials Version 3.3 (Final)","type":"Implementation Guide"},"priorVersion":{"href":"/mdr/sdtmig/3-2/datasets/EG","title":"ECG","type":"SDTM Dataset"},"self":{"href":"/mdr/sdtmig/3-3/datasets/EG","title":"ECG Test Results","type":"SDTM Dataset"}},"datasetStructure":"One record per ECG observation per replicate per time point or one record per ECG observation per beat per visit per subject","datasetVariables":[{"_links":{"modelClassVariable":{"href":"/mdr/sdtm/1-7/classes/GeneralObservations/variables/STUDYID","title":"Study Identifier","type":"Class Variable"},"parentDataset":{"href":"/mdr/sdtmig/3-3/datasets/EG","title":"ECG Test Results","type":"SDTM Dataset"},"parentProduct":{"href":"/mdr/sdtmig/3-3","title":"Study Data Tabulation Model Implementation Guide: Human Clinical Trials Version 3.3 (Final)","type":"Implementation Guide"},"priorVersion":{"href":"/mdr/sdtmig/3-2/datasets/EG/variables/STUDYID","title":"Study Identifier","type":"SDTM Dataset Variable"},"rootItem":{"href":"/mdr/root/sdtmig/datasets/EG/variables/STUDYID","title":"Version-agnostic anchor resource for SDTMIG variable EG.STUDYID","type":"Root Data Element"},"self":{"href":"/mdr/sdtmig/3-3/datasets/EG/variables/STUDYID","title":"Study Identifier","type":"SDTM Dataset Variable"}},"core":"Req","description":"Unique identifier for a study.","label":"Study Identifier","name":"STUDYID","ordinal":"1","role":"Identifier","simpleDatatype":"Char"},{"_links":{"modelClassVariable":{"href":"/mdr/sdtm/1-7/classes/GeneralObservations/variables/DOMAIN","title":"Domain Abbreviation","type":"Class Variable"},"parentDataset":{"href":"/mdr/sdtmig/3-3/datasets/EG","title":"ECG Test Results","type":"SDTM Dataset"},"parentProduct":{"href":"/mdr/sdtmig/3-3","title":"Study Data Tabulation Model Implementation Guide: Human Clinical Trials Version 3.3 (Final)","type":"Implementation Guide"},"priorVersion":{"href":"/mdr/sdtmig/3-2/datasets/EG/variables/DOMAIN","title":"Domain Abbreviation","type":"SDTM Dataset Variable"},"rootItem":{"href":"/mdr/root/sdtmig/datasets/EG/variables/DOMAIN","title":"Version-agnostic anchor resource for SDTMIG variable EG.DOMAIN","type":"Root Data Element"},"self":{"href":"/mdr/sdtmig/3-3/datasets/EG/variables/DOMAIN","title":"Domain Abbreviation","type":"SDTM Dataset Variable"}},"core":"Req","description":"Two-character abbreviation for the domain.","label":"Domain Abbreviation","name":"DOMAIN","ordinal":"2","role":"Identifier","simpleDatatype":"Char","valueList":["EG"]},{"_links":{"modelClassVariable":{"href":"/mdr/sdtm/1-7/classes/GeneralObservations/variables/USUBJID","title":"Unique Subject Identifier","type":"Class Variable"},"parentDataset":{"href":"/mdr/sdtmig/3-3/datasets/EG","title":"ECG Test Results","type":"SDTM Dataset"},"parentProduct":{"href":"/mdr/sdtmig/3-3","title":"Study Data Tabulation Model Implementation Guide: Human Clinical Trials Version 3.3 (Final)","type":"Implementation Guide"},"priorVersion":{"href":"/mdr/sdtmig/3-2/datasets/EG/variables/USUBJID","title":"Unique Subject Identifier","type":"SDTM Dataset Variable"},"rootItem":{"href":"/mdr/root/sdtmig/datasets/EG/variables/USUBJID","title":"Version-agnostic anchor resource for SDTMIG variable EG.USUBJID","type":"Root Data Element"},"self":{"href":"/mdr/sdtmig/3-3/datasets/EG/variables/USUBJID","title":"Unique Subject Identifier","type":"SDTM Dataset Variable"}},"core":"Req","description":"Identifier used to uniquely identify a subject across all studies for all applications or submissions involving the product.","label":"Unique Subject Identifier","name":"USUBJID","ordinal":"3","role":"Identifier","simpleDatatype":"Char"},{"_links":{"modelClassVariable":{"href":"/mdr/sdtm/1-7/classes/GeneralObservations/variables/SPDEVID","title":"Sponsor Device Identifier","type":"Class Variable"},"parentDataset":{"href":"/mdr/sdtmig/3-3/datasets/EG","title":"ECG Test Results","type":"SDTM Dataset"},"parentProduct":{"href":"/mdr/sdtmig/3-3","title":"Study Data Tabulation Model Implementation Guide: Human Clinical Trials Version 3.3 (Final)","type":"Implementation Guide"},"rootItem":{"href":"/mdr/root/sdtmig/datasets/EG/variables/SPDEVID","title":"Version-agnostic anchor resource for SDTMIG variable EG.SPDEVID","type":"Root Data Element"},"self":{"href":"/mdr/sdtmig/3-3/datasets/EG/variables/SPDEVID","title":"Sponsor Device Identifier","type":"SDTM Dataset Variable"}},"core":"Perm","description":"Sponsor-defined identifier for a device.","label":"Sponsor Device Identifier","name":"SPDEVID","ordinal":"4","role":"Identifier","simpleDatatype":"Char"},{"_links":{"modelClassVariable":{"href":"/mdr/sdtm/1-7/classes/GeneralObservations/variables/--SEQ","title":"Sequence Number","type":"Class Variable"},"parentDataset":{"href":"/mdr/sdtmig/3-3/datasets/EG","title":"ECG Test Results","type":"SDTM Dataset"},"parentProduct":{"href":"/mdr/sdtmig/3-3","title":"Study Data Tabulation Model Implementation Guide: Human Clinical Trials Version 3.3 (Final)","type":"Implementation Guide"},"priorVersion":{"href":"/mdr/sdtmig/3-2/datasets/EG/variables/EGSEQ","title":"Sequence Number","type":"SDTM Dataset Variable"},"rootItem":{"href":"/mdr/root/sdtmig/datasets/EG/variables/EGSEQ","title":"Version-agnostic anchor resource for SDTMIG variable EG.EGSEQ","type":"Root Data Element"},"self":{"href":"/mdr/sdtmig/3-3/datasets/EG/variables/EGSEQ","title":"Sequence Number","type":"SDTM Dataset Variable"}},"core":"Req","description":"Sequence number given to ensure uniqueness of subject records within a domain. May be any valid number.","label":"Sequence Number","name":"EGSEQ","ordinal":"5","role":"Identifier","simpleDatatype":"Num"},{"_links":{"modelClassVariable":{"href":"/mdr/sdtm/1-7/classes/GeneralObservations/variables/--GRPID","title":"Group ID","type":"Class Variable"},"parentDataset":{"href":"/mdr/sdtmig/3-3/datasets/EG","title":"ECG Test Results","type":"SDTM Dataset"},"parentProduct":{"href":"/mdr/sdtmig/3-3","title":"Study Data Tabulation Model Implementation Guide: Human Clinical Trials Version 3.3 (Final)","type":"Implementation Guide"},"priorVersion":{"href":"/mdr/sdtmig/3-2/datasets/EG/variables/EGGRPID","title":"Group ID","type":"SDTM Dataset Variable"},"rootItem":{"href":"/mdr/root/sdtmig/datasets/EG/variables/EGGRPID","title":"Version-agnostic anchor resource for SDTMIG variable EG.EGGRPID","type":"Root Data Element"},"self":{"href":"/mdr/sdtmig/3-3/datasets/EG/variables/EGGRPID","title":"Group ID","type":"SDTM Dataset Variable"}},"core":"Perm","description":"Used to tie together a block of related records in a single domain for a subject.","label":"Group ID","name":"EGGRPID","ordinal":"6","role":"Identifier","simpleDatatype":"Char"},{"_links":{"modelClassVariable":{"href":"/mdr/sdtm/1-7/classes/GeneralObservations/variables/--REFID","title":"Reference ID","type":"Class Variable"},"parentDataset":{"href":"/mdr/sdtmig/3-3/datasets/EG","title":"ECG Test Results","type":"SDTM Dataset"},"parentProduct":{"href":"/mdr/sdtmig/3-3","title":"Study Data Tabulation Model Implementation Guide: Human Clinical Trials Version 3.3 (Final)","type":"Implementation Guide"},"priorVersion":{"href":"/mdr/sdtmig/3-2/datasets/EG/variables/EGREFID","title":"ECG Reference ID","type":"SDTM Dataset Variable"},"rootItem":{"href":"/mdr/root/sdtmig/datasets/EG/variables/EGREFID","title":"Version-agnostic anchor resource for SDTMIG variable EG.EGREFID","type":"Root Data Element"},"self":{"href":"/mdr/sdtmig/3-3/datasets/EG/variables/EGREFID","title":"ECG Reference ID","type":"SDTM Dataset Variable"}},"core":"Perm","description":"Internal or external ECG identifier. Example: \"UUID\".","label":"ECG Reference ID","name":"EGREFID","ordinal":"7","role":"Identifier","simpleDatatype":"Char"},{"_links":{"modelClassVariable":{"href":"/mdr/sdtm/1-7/classes/GeneralObservations/variables/--SPID","title":"Sponsor-Defined Identifier","type":"Class Variable"},"parentDataset":{"href":"/mdr/sdtmig/3-3/datasets/EG","title":"ECG Test Results","type":"SDTM Dataset"},"parentProduct":{"href":"/mdr/sdtmig/3-3","title":"Study Data Tabulation Model Implementation Guide: Human Clinical Trials Version 3.3 (Final)","type":"Implementation Guide"},"priorVersion":{"href":"/mdr/sdtmig/3-2/datasets/EG/variables/EGSPID","title":"Sponsor-Defined Identifier","type":"SDTM Dataset Variable"},"rootItem":{"href":"/mdr/root/sdtmig/datasets/EG/variables/EGSPID","title":"Version-agnostic anchor resource for SDTMIG variable EG.EGSPID","type":"Root Data Element"},"self":{"href":"/mdr/sdtmig/3-3/datasets/EG/variables/EGSPID","title":"Sponsor-Defined Identifier","type":"SDTM Dataset Variable"}},"core":"Perm","description":"Sponsor-defined reference number. Perhaps preprinted on the CRF as an explicit line identifier or defined in the sponsor's operational database. Example: Line number from the ECG page.","label":"Sponsor-Defined Identifier","name":"EGSPID","ordinal":"8","role":"Identifier","simpleDatatype":"Char"},{"_links":{"codelist":[{"href":"/mdr/root/ct/sdtmct/codelists/C71153","title":"Version-agnostic anchor resource for codelist C71153","type":"Root Value Domain"},{"href":"/mdr/root/ct/sdtmct/codelists/C120523","title":"Version-agnostic anchor resource for codelist C120523","type":"Root Value Domain"}],"modelClassVariable":{"href":"/mdr/sdtm/1-7/classes/Findings/variables/--TESTCD","title":"Short Name of Measurement, Test, or Exam","type":"Class Variable"},"parentDataset":{"href":"/mdr/sdtmig/3-3/datasets/EG","title":"ECG Test Results","type":"SDTM Dataset"},"parentProduct":{"href":"/mdr/sdtmig/3-3","title":"Study Data Tabulation Model Implementation Guide: Human Clinical Trials Version 3.3 (Final)","type":"Implementation Guide"},"priorVersion":{"href":"/mdr/sdtmig/3-2/datasets/EG/variables/EGTESTCD","title":"ECG Test or Examination Short Name","type":"SDTM Dataset Variable"},"rootItem":{"href":"/mdr/root/sdtmig/datasets/EG/variables/EGTESTCD","title":"Version-agnostic anchor resource for SDTMIG variable EG.EGTESTCD","type":"Root Data Element"},"self":{"href":"/mdr/sdtmig/3-3/datasets/EG/variables/EGTESTCD","title":"ECG Test or Examination Short Name","type":"SDTM Dataset Variable"}},"core":"Req","description":"Short name of the measurement, test, or examination described in EGTEST. It can be used as a column name when converting a dataset from a vertical to a horizontal format. The value in EGTESTCD cannot be longer than 8 characters, nor can it start with a number (e.g., \"1TEST\" is not valid). EGTESTCD cannot contain characters other than letters, numbers, or underscores. Examples : \"PRAG\", \"QRSAG\".\nTest codes are in two separate codelists, one for tests based on regular 10-second ECGs (EGTESTCD) and one for tests based on Holter monitoring (HETESTCD).","label":"ECG Test or Examination Short Name","name":"EGTESTCD","ordinal":"9","role":"Topic","simpleDatatype":"Char"},{"_links":{"codelist":[{"href":"/mdr/root/ct/sdtmct/codelists/C71152","title":"Version-agnostic anchor resource for codelist C71152","type":"Root Value Domain"},{"href":"/mdr/root/ct/sdtmct/codelists/C120524","title":"Version-agnostic anchor resource for codelist C120524","type":"Root Value Domain"}],"modelClassVariable":{"href":"/mdr/sdtm/1-7/classes/Findings/variables/--TEST","title":"Name of Measurement, Test, or Exam","type":"Class Variable"},"parentDataset":{"href":"/mdr/sdtmig/3-3/datasets/EG","title":"ECG Test Results","type":"SDTM Dataset"},"parentProduct":{"href":"/mdr/sdtmig/3-3","title":"Study Data Tabulation Model Implementation Guide: Human Clinical Trials Version 3.3 (Final)","type":"Implementation Guide"},"priorVersion":{"href":"/mdr/sdtmig/3-2/datasets/EG/variables/EGTEST","title":"ECG Test or Examination Name","type":"SDTM Dataset Variable"},"rootItem":{"href":"/mdr/root/sdtmig/datasets/EG/variables/EGTEST","title":"Version-agnostic anchor resource for SDTMIG variable EG.EGTEST","type":"Root Data Element"},"self":{"href":"/mdr/sdtmig/3-3/datasets/EG/variables/EGTEST","title":"ECG Test or Examination Name","type":"SDTM Dataset Variable"}},"core":"Req","description":"Verbatim name of the test or examination used to obtain the measurement or finding. The value in EGTEST cannot be longer than 40 characters. Examples: \"PR Interval, Aggregate\", \"QRS Duration, Aggregate\".\nTest names are in two separate codelists, one for tests based on regular 10-second ECGs (EGTEST) and one for tests based on Holter monitoring (HETEST).","label":"ECG Test or Examination Name","name":"EGTEST","ordinal":"10","role":"Synonym Qualifier","simpleDatatype":"Char"},{"_links":{"modelClassVariable":{"href":"/mdr/sdtm/1-7/classes/Findings/variables/--CAT","title":"Category","type":"Class Variable"},"parentDataset":{"href":"/mdr/sdtmig/3-3/datasets/EG","title":"ECG Test Results","type":"SDTM Dataset"},"parentProduct":{"href":"/mdr/sdtmig/3-3","title":"Study Data Tabulation Model Implementation Guide: Human Clinical Trials Version 3.3 (Final)","type":"Implementation Guide"},"priorVersion":{"href":"/mdr/sdtmig/3-2/datasets/EG/variables/EGCAT","title":"Category for ECG","type":"SDTM Dataset Variable"},"rootItem":{"href":"/mdr/root/sdtmig/datasets/EG/variables/EGCAT","title":"Version-agnostic anchor resource for SDTMIG variable EG.EGCAT","type":"Root Data Element"},"self":{"href":"/mdr/sdtmig/3-3/datasets/EG/variables/EGCAT","title":"Category for ECG","type":"SDTM Dataset Variable"}},"core":"Perm","description":"Used to categorize ECG observations across subjects. Examples: \"MEASUREMENT\", \"FINDING\", \"INTERVAL\".","label":"Category for ECG","name":"EGCAT","ordinal":"11","role":"Grouping Qualifier","simpleDatatype":"Char"},{"_links":{"modelClassVariable":{"href":"/mdr/sdtm/1-7/classes/Findings/variables/--SCAT","title":"Subcategory","type":"Class Variable"},"parentDataset":{"href":"/mdr/sdtmig/3-3/datasets/EG","title":"ECG Test Results","type":"SDTM Dataset"},"parentProduct":{"href":"/mdr/sdtmig/3-3","title":"Study Data Tabulation Model Implementation Guide: Human Clinical Trials Version 3.3 (Final)","type":"Implementation Guide"},"priorVersion":{"href":"/mdr/sdtmig/3-2/datasets/EG/variables/EGSCAT","title":"Subcategory for ECG","type":"SDTM Dataset Variable"},"rootItem":{"href":"/mdr/root/sdtmig/datasets/EG/variables/EGSCAT","title":"Version-agnostic anchor resource for SDTMIG variable EG.EGSCAT","type":"Root Data Element"},"self":{"href":"/mdr/sdtmig/3-3/datasets/EG/variables/EGSCAT","title":"Subcategory for ECG","type":"SDTM Dataset Variable"}},"core":"Perm","description":"A further categorization of the ECG.","label":"Subcategory for ECG","name":"EGSCAT","ordinal":"12","role":"Grouping Qualifier","simpleDatatype":"Char"},{"_links":{"codelist":[{"href":"/mdr/root/ct/sdtmct/codelists/C71148","title":"Version-agnostic anchor resource for codelist C71148","type":"Root Value Domain"}],"modelClassVariable":{"href":"/mdr/sdtm/1-7/classes/Findings/variables/--POS","title":"Position of Subject During Observation","type":"Class Variable"},"parentDataset":{"href":"/mdr/sdtmig/3-3/datasets/EG","title":"ECG Test Results","type":"SDTM Dataset"},"parentProduct":{"href":"/mdr/sdtmig/3-3","title":"Study Data Tabulation Model Implementation Guide: Human Clinical Trials Version 3.3 (Final)","type":"Implementation Guide"},"priorVersion":{"href":"/mdr/sdtmig/3-2/datasets/EG/variables/EGPOS","title":"ECG Position of Subject","type":"SDTM Dataset Variable"},"rootItem":{"href":"/mdr/root/sdtmig/datasets/EG/variables/EGPOS","title":"Version-agnostic anchor resource for SDTMIG variable EG.EGPOS","type":"Root Data Element"},"self":{"href":"/mdr/sdtmig/3-3/datasets/EG/variables/EGPOS","title":"ECG Position of Subject","type":"SDTM Dataset Variable"}},"core":"Perm","description":"Position of the subject during a measurement or examination. Examples: \"SUPINE\", \"STANDING\", \"SITTING\".","label":"ECG Position of Subject","name":"EGPOS","ordinal":"13","role":"Record Qualifier","simpleDatatype":"Char"},{"_links":{"parentDataset":{"href":"/mdr/sdtmig/3-3/datasets/EG","title":"ECG Test Results","type":"SDTM Dataset"},"parentProduct":{"href":"/mdr/sdtmig/3-3","title":"Study Data Tabulation Model Implementation Guide: Human Clinical Trials Version 3.3 (Final)","type":"Implementation Guide"},"rootItem":{"href":"/mdr/root/sdtmig/datasets/EG/variables/EGBEATNO","title":"Version-agnostic anchor resource for SDTMIG variable EG.EGBEATNO","type":"Root Data Element"},"self":{"href":"/mdr/sdtmig/3-3/datasets/EG/variables/EGBEATNO","title":"ECG Beat Number","type":"SDTM Dataset Variable"}},"core":"Perm","description":"A sequence number that identifies the beat within an ECG.","label":"ECG Beat Number","name":"EGBEATNO","ordinal":"14","role":"Variable Qualifier","simpleDatatype":"Num"},{"_links":{"modelClassVariable":{"href":"/mdr/sdtm/1-7/classes/Findings/variables/--ORRES","title":"Result or Finding in Original Units","type":"Class Variable"},"parentDataset":{"href":"/mdr/sdtmig/3-3/datasets/EG","title":"ECG Test Results","type":"SDTM Dataset"},"parentProduct":{"href":"/mdr/sdtmig/3-3","title":"Study Data Tabulation Model Implementation Guide: Human Clinical Trials Version 3.3 (Final)","type":"Implementation Guide"},"priorVersion":{"href":"/mdr/sdtmig/3-2/datasets/EG/variables/EGORRES","title":"Result or Finding in Original Units","type":"SDTM Dataset Variable"},"rootItem":{"href":"/mdr/root/sdtmig/datasets/EG/variables/EGORRES","title":"Version-agnostic anchor resource for SDTMIG variable EG.EGORRES","type":"Root Data Element"},"self":{"href":"/mdr/sdtmig/3-3/datasets/EG/variables/EGORRES","title":"Result or Finding in Original Units","type":"SDTM Dataset Variable"}},"core":"Exp","description":"Result of the ECG measurement or finding as originally received or collected. Examples of expected values are \"62\" or \"0.151\" when the result is an interval or measurement, or \"ATRIAL FIBRILLATION\" or \"QT PROLONGATION\" when the result is a finding.","label":"Result or Finding in Original Units","name":"EGORRES","ordinal":"15","role":"Result Qualifier","simpleDatatype":"Char"},{"_links":{"codelist":[{"href":"/mdr/root/ct/sdtmct/codelists/C71620","title":"Version-agnostic anchor resource for codelist C71620","type":"Root Value Domain"}],"modelClassVariable":{"href":"/mdr/sdtm/1-7/classes/Findings/variables/--ORRESU","title":"Original Units","type":"Class Variable"},"parentDataset":{"href":"/mdr/sdtmig/3-3/datasets/EG","title":"ECG Test Results","type":"SDTM Dataset"},"parentProduct":{"href":"/mdr/sdtmig/3-3","title":"Study Data Tabulation Model Implementation Guide: Human Clinical Trials Version 3.3 (Final)","type":"Implementation Guide"},"priorVersion":{"href":"/mdr/sdtmig/3-2/datasets/EG/variables/EGORRESU","title":"Original Units","type":"SDTM Dataset Variable"},"rootItem":{"href":"/mdr/root/sdtmig/datasets/EG/variables/EGORRESU","title":"Version-agnostic anchor resource for SDTMIG variable EG.EGORRESU","type":"Root Data Element"},"self":{"href":"/mdr/sdtmig/3-3/datasets/EG/variables/EGORRESU","title":"Original Units","type":"SDTM Dataset Variable"}},"core":"Perm","description":"Original units in which the data were collected. The unit for EGORRES. Examples: \"sec\" or \"msec\".","label":"Original Units","name":"EGORRESU","ordinal":"16","role":"Variable Qualifier","simpleDatatype":"Char"},{"_links":{"codelist":[{"href":"/mdr/root/ct/sdtmct/codelists/C120522","title":"Version-agnostic anchor resource for codelist C120522","type":"Root Value Domain"},{"href":"/mdr/root/ct/sdtmct/codelists/C71150","title":"Version-agnostic anchor resource for codelist C71150","type":"Root Value Domain"}],"modelClassVariable":{"href":"/mdr/sdtm/1-7/classes/Findings/variables/--STRESC","title":"Result or Finding in Standard Format","type":"Class Variable"},"parentDataset":{"href":"/mdr/sdtmig/3-3/datasets/EG","title":"ECG Test Results","type":"SDTM Dataset"},"parentProduct":{"href":"/mdr/sdtmig/3-3","title":"Study Data Tabulation Model Implementation Guide: Human Clinical Trials Version 3.3 (Final)","type":"Implementation Guide"},"priorVersion":{"href":"/mdr/sdtmig/3-2/datasets/EG/variables/EGSTRESC","title":"Character Result/Finding in Std Format","type":"SDTM Dataset Variable"},"rootItem":{"href":"/mdr/root/sdtmig/datasets/EG/variables/EGSTRESC","title":"Version-agnostic anchor resource for SDTMIG variable EG.EGSTRESC","type":"Root Data Element"},"self":{"href":"/mdr/sdtmig/3-3/datasets/EG/variables/EGSTRESC","title":"Character Result/Finding in Std Format","type":"SDTM Dataset Variable"}},"core":"Exp","description":"Contains the result value for all findings, copied or derived from EGORRES in a standard format or standard units. EGSTRESC should store all results or findings in character format; if results are numeric, they should also be stored in numeric format in EGSTRESN. For example, if a test has results of \"NONE\", \"NEG\", and \"NEGATIVE\" in EGORRES and these results effectively have the same meaning, they could be represented in standard format in EGSTRESC as \"NEGATIVE\". For other examples, see general assumptions. Additional examples of result data: \"SINUS BRADYCARDIA\", \"ATRIAL FLUTTER\", \"ATRIAL FIBRILLATION\".\nTest results are in two separate codelists, one for tests based on regular 10-second ECGs (EGSTRESC) and one for tests based on Holter monitoring (HESTRESC).","label":"Character Result/Finding in Std Format","name":"EGSTRESC","ordinal":"17","role":"Result Qualifier","simpleDatatype":"Char"},{"_links":{"modelClassVariable":{"href":"/mdr/sdtm/1-7/classes/Findings/variables/--STRESN","title":"Numeric Result/Finding in Standard Units","type":"Class Variable"},"parentDataset":{"href":"/mdr/sdtmig/3-3/datasets/EG","title":"ECG Test Results","type":"SDTM Dataset"},"parentProduct":{"href":"/mdr/sdtmig/3-3","title":"Study Data Tabulation Model Implementation Guide: Human Clinical Trials Version 3.3 (Final)","type":"Implementation Guide"},"priorVersion":{"href":"/mdr/sdtmig/3-2/datasets/EG/variables/EGSTRESN","title":"Numeric Result/Finding in Standard Units","type":"SDTM Dataset Variable"},"rootItem":{"href":"/mdr/root/sdtmig/datasets/EG/variables/EGSTRESN","title":"Version-agnostic anchor resource for SDTMIG variable EG.EGSTRESN","type":"Root Data Element"},"self":{"href":"/mdr/sdtmig/3-3/datasets/EG/variables/EGSTRESN","title":"Numeric Result/Finding in Standard Units","type":"SDTM Dataset Variable"}},"core":"Perm","description":"Used for continuous or numeric results or findings in standard format; copied in numeric format from EGSTRESC. EGSTRESN should store all numeric test results or findings.","label":"Numeric Result/Finding in Standard Units","name":"EGSTRESN","ordinal":"18","role":"Result Qualifier","simpleDatatype":"Num"},{"_links":{"codelist":[{"href":"/mdr/root/ct/sdtmct/codelists/C71620","title":"Version-agnostic anchor resource for codelist C71620","type":"Root Value Domain"}],"modelClassVariable":{"href":"/mdr/sdtm/1-7/classes/Findings/variables/--STRESU","title":"Standard Units","type":"Class Variable"},"parentDataset":{"href":"/mdr/sdtmig/3-3/datasets/EG","title":"ECG Test Results","type":"SDTM Dataset"},"parentProduct":{"href":"/mdr/sdtmig/3-3","title":"Study Data Tabulation Model Implementation Guide: Human Clinical Trials Version 3.3 (Final)","type":"Implementation Guide"},"priorVersion":{"href":"/mdr/sdtmig/3-2/datasets/EG/variables/EGSTRESU","title":"Standard Units","type":"SDTM Dataset Variable"},"rootItem":{"href":"/mdr/root/sdtmig/datasets/EG/variables/EGSTRESU","title":"Version-agnostic anchor resource for SDTMIG variable EG.EGSTRESU","type":"Root Data Element"},"self":{"href":"/mdr/sdtmig/3-3/datasets/EG/variables/EGSTRESU","title":"Standard Units","type":"SDTM Dataset Variable"}},"core":"Perm","description":"Standardized units used for EGSTRESC and EGSTRESN.","label":"Standard Units","name":"EGSTRESU","ordinal":"19","role":"Variable Qualifier","simpleDatatype":"Char"},{"_links":{"codelist":[{"href":"/mdr/root/ct/sdtmct/codelists/C66789","title":"Version-agnostic anchor resource for codelist C66789","type":"Root Value Domain"}],"modelClassVariable":{"href":"/mdr/sdtm/1-7/classes/Findings/variables/--STAT","title":"Completion Status","type":"Class Variable"},"parentDataset":{"href":"/mdr/sdtmig/3-3/datasets/EG","title":"ECG Test Results","type":"SDTM Dataset"},"parentProduct":{"href":"/mdr/sdtmig/3-3","title":"Study Data Tabulation Model Implementation Guide: Human Clinical Trials Version 3.3 (Final)","type":"Implementation Guide"},"priorVersion":{"href":"/mdr/sdtmig/3-2/datasets/EG/variables/EGSTAT","title":"Completion Status","type":"SDTM Dataset Variable"},"rootItem":{"href":"/mdr/root/sdtmig/datasets/EG/variables/EGSTAT","title":"Version-agnostic anchor resource for SDTMIG variable EG.EGSTAT","type":"Root Data Element"},"self":{"href":"/mdr/sdtmig/3-3/datasets/EG/variables/EGSTAT","title":"Completion Status","type":"SDTM Dataset Variable"}},"core":"Perm","description":"Used to indicate an ECG was not done, or an ECG measurement was not taken. Should be null if a result exists in EGORRES.","label":"Completion Status","name":"EGSTAT","ordinal":"20","role":"Record Qualifier","simpleDatatype":"Char"},{"_links":{"modelClassVariable":{"href":"/mdr/sdtm/1-7/classes/Findings/variables/--REASND","title":"Reason Not Done","type":"Class Variable"},"parentDataset":{"href":"/mdr/sdtmig/3-3/datasets/EG","title":"ECG Test Results","type":"SDTM Dataset"},"parentProduct":{"href":"/mdr/sdtmig/3-3","title":"Study Data Tabulation Model Implementation Guide: Human Clinical Trials Version 3.3 (Final)","type":"Implementation Guide"},"priorVersion":{"href":"/mdr/sdtmig/3-2/datasets/EG/variables/EGREASND","title":"Reason ECG Not Performed","type":"SDTM Dataset Variable"},"rootItem":{"href":"/mdr/root/sdtmig/datasets/EG/variables/EGREASND","title":"Version-agnostic anchor resource for SDTMIG variable EG.EGREASND","type":"Root Data Element"},"self":{"href":"/mdr/sdtmig/3-3/datasets/EG/variables/EGREASND","title":"Reason ECG Not Done","type":"SDTM Dataset Variable"}},"core":"Perm","description":"Describes why a measurement or test was not performed. Examples: \"BROKEN EQUIPMENT\" or \"SUBJECT REFUSED\". Used in conjunction with EGSTAT when value is \"NOT DONE\".","label":"Reason ECG Not Done","name":"EGREASND","ordinal":"21","role":"Record Qualifier","simpleDatatype":"Char"},{"_links":{"modelClassVariable":{"href":"/mdr/sdtm/1-7/classes/Findings/variables/--XFN","title":"External File Path","type":"Class Variable"},"parentDataset":{"href":"/mdr/sdtmig/3-3/datasets/EG","title":"ECG Test Results","type":"SDTM Dataset"},"parentProduct":{"href":"/mdr/sdtmig/3-3","title":"Study Data Tabulation Model Implementation Guide: Human Clinical Trials Version 3.3 (Final)","type":"Implementation Guide"},"priorVersion":{"href":"/mdr/sdtmig/3-2/datasets/EG/variables/EGXFN","title":"ECG External File Path","type":"SDTM Dataset Variable"},"rootItem":{"href":"/mdr/root/sdtmig/datasets/EG/variables/EGXFN","title":"Version-agnostic anchor resource for SDTMIG variable EG.EGXFN","type":"Root Data Element"},"self":{"href":"/mdr/sdtmig/3-3/datasets/EG/variables/EGXFN","title":"ECG External File Path","type":"SDTM Dataset Variable"}},"core":"Perm","description":"File name and path for the external ECG waveform file.","label":"ECG External File Path","name":"EGXFN","ordinal":"22","role":"Record Qualifier","simpleDatatype":"Char"},{"_links":{"modelClassVariable":{"href":"/mdr/sdtm/1-7/classes/Findings/variables/--NAM","title":"Laboratory/Vendor Name","type":"Class Variable"},"parentDataset":{"href":"/mdr/sdtmig/3-3/datasets/EG","title":"ECG Test Results","type":"SDTM Dataset"},"parentProduct":{"href":"/mdr/sdtmig/3-3","title":"Study Data Tabulation Model Implementation Guide: Human Clinical Trials Version 3.3 (Final)","type":"Implementation Guide"},"priorVersion":{"href":"/mdr/sdtmig/3-2/datasets/EG/variables/EGNAM","title":"Vendor Name","type":"SDTM Dataset Variable"},"rootItem":{"href":"/mdr/root/sdtmig/datasets/EG/variables/EGNAM","title":"Version-agnostic anchor resource for SDTMIG variable EG.EGNAM","type":"Root Data Element"},"self":{"href":"/mdr/sdtmig/3-3/datasets/EG/variables/EGNAM","title":"Vendor Name","type":"SDTM Dataset Variable"}},"core":"Perm","description":"Name or identifier of the laboratory or vendor who provided the test results.","label":"Vendor Name","name":"EGNAM","ordinal":"23","role":"Record Qualifier","simpleDatatype":"Char"},{"_links":{"codelist":[{"href":"/mdr/root/ct/sdtmct/codelists/C71151","title":"Version-agnostic anchor resource for codelist C71151","type":"Root Value Domain"}],"modelClassVariable":{"href":"/mdr/sdtm/1-7/classes/Findings/variables/--METHOD","title":"Method of Test or Examination","type":"Class Variable"},"parentDataset":{"href":"/mdr/sdtmig/3-3/datasets/EG","title":"ECG Test Results","type":"SDTM Dataset"},"parentProduct":{"href":"/mdr/sdtmig/3-3","title":"Study Data Tabulation Model Implementation Guide: Human Clinical Trials Version 3.3 (Final)","type":"Implementation Guide"},"priorVersion":{"href":"/mdr/sdtmig/3-2/datasets/EG/variables/EGMETHOD","title":"Method of ECG Test","type":"SDTM Dataset Variable"},"rootItem":{"href":"/mdr/root/sdtmig/datasets/EG/variables/EGMETHOD","title":"Version-agnostic anchor resource for SDTMIG variable EG.EGMETHOD","type":"Root Data Element"},"self":{"href":"/mdr/sdtmig/3-3/datasets/EG/variables/EGMETHOD","title":"Method of Test or Examination","type":"SDTM Dataset Variable"}},"core":"Perm","description":"Method of the ECG test. Example: \"12 LEAD STANDARD\".","label":"Method of Test or Examination","name":"EGMETHOD","ordinal":"24","role":"Record Qualifier","simpleDatatype":"Char"},{"_links":{"codelist":[{"href":"/mdr/root/ct/sdtmct/codelists/C90013","title":"Version-agnostic anchor resource for codelist C90013","type":"Root Value Domain"}],"modelClassVariable":{"href":"/mdr/sdtm/1-7/classes/Findings/variables/--LEAD","title":"Lead Identified to Collect Measurements","type":"Class Variable"},"parentDataset":{"href":"/mdr/sdtmig/3-3/datasets/EG","title":"ECG Test Results","type":"SDTM Dataset"},"parentProduct":{"href":"/mdr/sdtmig/3-3","title":"Study Data Tabulation Model Implementation Guide: Human Clinical Trials Version 3.3 (Final)","type":"Implementation Guide"},"priorVersion":{"href":"/mdr/sdtmig/3-2/datasets/EG/variables/EGLEAD","title":"Lead Location Used for Measurement","type":"SDTM Dataset Variable"},"rootItem":{"href":"/mdr/root/sdtmig/datasets/EG/variables/EGLEAD","title":"Version-agnostic anchor resource for SDTMIG variable EG.EGLEAD","type":"Root Data Element"},"self":{"href":"/mdr/sdtmig/3-3/datasets/EG/variables/EGLEAD","title":"Lead Location Used for Measurement","type":"SDTM Dataset Variable"}},"core":"Perm","description":"The lead used for the measurement. Examples: \"LEAD 1\", \"LEAD 2\", \"LEAD 3\", \"LEAD rV2\", \"LEAD V1\".","label":"Lead Location Used for Measurement","name":"EGLEAD","ordinal":"25","role":"Record Qualifier","simpleDatatype":"Char"},{"_links":{"codelist":[{"href":"/mdr/root/ct/sdtmct/codelists/C66742","title":"Version-agnostic anchor resource for codelist C66742","type":"Root Value Domain"}],"modelClassVariable":{"href":"/mdr/sdtm/1-7/classes/Findings/variables/--LOBXFL","title":"Last Observation Before Exposure Flag","type":"Class Variable"},"parentDataset":{"href":"/mdr/sdtmig/3-3/datasets/EG","title":"ECG Test Results","type":"SDTM Dataset"},"parentProduct":{"href":"/mdr/sdtmig/3-3","title":"Study Data Tabulation Model Implementation Guide: Human Clinical Trials Version 3.3 (Final)","type":"Implementation Guide"},"rootItem":{"href":"/mdr/root/sdtmig/datasets/EG/variables/EGLOBXFL","title":"Version-agnostic anchor resource for SDTMIG variable EG.EGLOBXFL","type":"Root Data Element"},"self":{"href":"/mdr/sdtmig/3-3/datasets/EG/variables/EGLOBXFL","title":"Last Observation Before Exposure Flag","type":"SDTM Dataset Variable"}},"core":"Exp","description":"Operationally-derived indicator used to identify the last non-missing value prior to RFXSTDTC. The value should be \"Y\" or null.","label":"Last Observation Before Exposure Flag","name":"EGLOBXFL","ordinal":"26","role":"Record Qualifier","simpleDatatype":"Char"},{"_links":{"codelist":[{"href":"/mdr/root/ct/sdtmct/codelists/C66742","title":"Version-agnostic anchor resource for codelist C66742","type":"Root Value Domain"}],"modelClassVariable":{"href":"/mdr/sdtm/1-7/classes/Findings/variables/--BLFL","title":"Baseline Flag","type":"Class Variable"},"parentDataset":{"href":"/mdr/sdtmig/3-3/datasets/EG","title":"ECG Test Results","type":"SDTM Dataset"},"parentProduct":{"href":"/mdr/sdtmig/3-3","title":"Study Data Tabulation Model Implementation Guide: Human Clinical Trials Version 3.3 (Final)","type":"Implementation Guide"},"priorVersion":{"href":"/mdr/sdtmig/3-2/datasets/EG/variables/EGBLFL","title":"Baseline Flag","type":"SDTM Dataset Variable"},"rootItem":{"href":"/mdr/root/sdtmig/datasets/EG/variables/EGBLFL","title":"Version-agnostic anchor resource for SDTMIG variable EG.EGBLFL","type":"Root Data Element"},"self":{"href":"/mdr/sdtmig/3-3/datasets/EG/variables/EGBLFL","title":"Baseline Flag","type":"SDTM Dataset Variable"}},"core":"Perm","description":"Indicator used to identify a baseline value. Should be \"Y\" or null. Note that EGBLFL is retained for backward compatibility. The authoritative baseline for statistical analysis is in an ADaM dataset.","label":"Baseline Flag","name":"EGBLFL","ordinal":"27","role":"Record Qualifier","simpleDatatype":"Char"},{"_links":{"codelist":[{"href":"/mdr/root/ct/sdtmct/codelists/C66742","title":"Version-agnostic anchor resource for codelist C66742","type":"Root Value Domain"}],"modelClassVariable":{"href":"/mdr/sdtm/1-7/classes/Findings/variables/--DRVFL","title":"Derived Flag","type":"Class Variable"},"parentDataset":{"href":"/mdr/sdtmig/3-3/datasets/EG","title":"ECG Test Results","type":"SDTM Dataset"},"parentProduct":{"href":"/mdr/sdtmig/3-3","title":"Study Data Tabulation Model Implementation Guide: Human Clinical Trials Version 3.3 (Final)","type":"Implementation Guide"},"priorVersion":{"href":"/mdr/sdtmig/3-2/datasets/EG/variables/EGDRVFL","title":"Derived Flag","type":"SDTM Dataset Variable"},"rootItem":{"href":"/mdr/root/sdtmig/datasets/EG/variables/EGDRVFL","title":"Version-agnostic anchor resource for SDTMIG variable EG.EGDRVFL","type":"Root Data Element"},"self":{"href":"/mdr/sdtmig/3-3/datasets/EG/variables/EGDRVFL","title":"Derived Flag","type":"SDTM Dataset Variable"}},"core":"Perm","description":"Used to indicate a derived record. The value should be \"Y\" or null. Records that represent the average of other records, or that do not come from the CRF, or are not as originally collected or received are examples of records that would be derived for the submission datasets. If EGDRVFL = \"Y\", then EGORRES could be null, with EGSTRESC and EGSTRESN (if the result is numeric) having the derived value.","label":"Derived Flag","name":"EGDRVFL","ordinal":"28","role":"Record Qualifier","simpleDatatype":"Char"},{"_links":{"codelist":[{"href":"/mdr/root/ct/sdtmct/codelists/C78735","title":"Version-agnostic anchor resource for codelist C78735","type":"Root Value Domain"}],"modelClassVariable":{"href":"/mdr/sdtm/1-7/classes/Findings/variables/--EVAL","title":"Evaluator","type":"Class Variable"},"parentDataset":{"href":"/mdr/sdtmig/3-3/datasets/EG","title":"ECG Test Results","type":"SDTM Dataset"},"parentProduct":{"href":"/mdr/sdtmig/3-3","title":"Study Data Tabulation Model Implementation Guide: Human Clinical Trials Version 3.3 (Final)","type":"Implementation Guide"},"priorVersion":{"href":"/mdr/sdtmig/3-2/datasets/EG/variables/EGEVAL","title":"Evaluator","type":"SDTM Dataset Variable"},"rootItem":{"href":"/mdr/root/sdtmig/datasets/EG/variables/EGEVAL","title":"Version-agnostic anchor resource for SDTMIG variable EG.EGEVAL","type":"Root Data Element"},"self":{"href":"/mdr/sdtmig/3-3/datasets/EG/variables/EGEVAL","title":"Evaluator","type":"SDTM Dataset Variable"}},"core":"Perm","description":"Role of the person who provided the evaluation. Used only for results that are subjective (e.g., assigned by a person or a group). Should be null for records that contain collected or derived data. Examples: \"INVESTIGATOR\", \"ADJUDICATION COMMITTEE\", \"VENDOR\".","label":"Evaluator","name":"EGEVAL","ordinal":"29","role":"Record Qualifier","simpleDatatype":"Char"},{"_links":{"codelist":[{"href":"/mdr/root/ct/sdtmct/codelists/C96777","title":"Version-agnostic anchor resource for codelist C96777","type":"Root Value Domain"}],"modelClassVariable":{"href":"/mdr/sdtm/1-7/classes/Findings/variables/--EVALID","title":"Evaluator Identifier","type":"Class Variable"},"parentDataset":{"href":"/mdr/sdtmig/3-3/datasets/EG","title":"ECG Test Results","type":"SDTM Dataset"},"parentProduct":{"href":"/mdr/sdtmig/3-3","title":"Study Data Tabulation Model Implementation Guide: Human Clinical Trials Version 3.3 (Final)","type":"Implementation Guide"},"rootItem":{"href":"/mdr/root/sdtmig/datasets/EG/variables/EGEVALID","title":"Version-agnostic anchor resource for SDTMIG variable EG.EGEVALID","type":"Root Data Element"},"self":{"href":"/mdr/sdtmig/3-3/datasets/EG/variables/EGEVALID","title":"Evaluator Identifier","type":"SDTM Dataset Variable"}},"core":"Perm","description":"Used to distinguish multiple evaluators with the same role recorded in EGEVAL. Examples: \"RADIOLOGIST 1\" or \"RADIOLOGIST 2\".","label":"Evaluator Identifier","name":"EGEVALID","ordinal":"30","role":"Variable Qualifier","simpleDatatype":"Char"},{"_links":{"modelClassVariable":{"href":"/mdr/sdtm/1-7/classes/Findings/variables/--REPNUM","title":"Repetition Number","type":"Class Variable"},"parentDataset":{"href":"/mdr/sdtmig/3-3/datasets/EG","title":"ECG Test Results","type":"SDTM Dataset"},"parentProduct":{"href":"/mdr/sdtmig/3-3","title":"Study Data Tabulation Model Implementation Guide: Human Clinical Trials Version 3.3 (Final)","type":"Implementation Guide"},"rootItem":{"href":"/mdr/root/sdtmig/datasets/EG/variables/EGREPNUM","title":"Version-agnostic anchor resource for SDTMIG variable EG.EGREPNUM","type":"Root Data Element"},"self":{"href":"/mdr/sdtmig/3-3/datasets/EG/variables/EGREPNUM","title":"Repetition Number","type":"SDTM Dataset Variable"}},"core":"Perm","description":"The incidence number of a test that is repeated within a given timeframe for the same test. The level of granularity can vary, e.g., within a time point or within a visit. For example, multiple measurements of blood pressure or multiple analyses of a sample.","label":"Repetition Number","name":"EGREPNUM","ordinal":"31","role":"Record Qualifier","simpleDatatype":"Num"},{"_links":{"modelClassVariable":{"href":"/mdr/sdtm/1-7/classes/GeneralObservations/variables/VISITNUM","title":"Visit Number","type":"Class Variable"},"parentDataset":{"href":"/mdr/sdtmig/3-3/datasets/EG","title":"ECG Test Results","type":"SDTM Dataset"},"parentProduct":{"href":"/mdr/sdtmig/3-3","title":"Study Data Tabulation Model Implementation Guide: Human Clinical Trials Version 3.3 (Final)","type":"Implementation Guide"},"priorVersion":{"href":"/mdr/sdtmig/3-2/datasets/EG/variables/VISITNUM","title":"Visit Number","type":"SDTM Dataset Variable"},"rootItem":{"href":"/mdr/root/sdtmig/datasets/EG/variables/VISITNUM","title":"Version-agnostic anchor resource for SDTMIG variable EG.VISITNUM","type":"Root Data Element"},"self":{"href":"/mdr/sdtmig/3-3/datasets/EG/variables/VISITNUM","title":"Visit Number","type":"SDTM Dataset Variable"}},"core":"Exp","description":"1. Clinical encounter number.\n2. Numeric version of VISIT, used for sorting.","label":"Visit Number","name":"VISITNUM","ordinal":"32","role":"Timing","simpleDatatype":"Num"},{"_links":{"modelClassVariable":{"href":"/mdr/sdtm/1-7/classes/GeneralObservations/variables/VISIT","title":"Visit Name","type":"Class Variable"},"parentDataset":{"href":"/mdr/sdtmig/3-3/datasets/EG","title":"ECG Test Results","type":"SDTM Dataset"},"parentProduct":{"href":"/mdr/sdtmig/3-3","title":"Study Data Tabulation Model Implementation Guide: Human Clinical Trials Version 3.3 (Final)","type":"Implementation Guide"},"priorVersion":{"href":"/mdr/sdtmig/3-2/datasets/EG/variables/VISIT","title":"Visit Name","type":"SDTM Dataset Variable"},"rootItem":{"href":"/mdr/root/sdtmig/datasets/EG/variables/VISIT","title":"Version-agnostic anchor resource for SDTMIG variable EG.VISIT","type":"Root Data Element"},"self":{"href":"/mdr/sdtmig/3-3/datasets/EG/variables/VISIT","title":"Visit Name","type":"SDTM Dataset Variable"}},"core":"Perm","description":"1. Protocol-defined description of clinical encounter.\n2. May be used in addition to VISITNUM and/or VISITDY.","label":"Visit Name","name":"VISIT","ordinal":"33","role":"Timing","simpleDatatype":"Char"},{"_links":{"modelClassVariable":{"href":"/mdr/sdtm/1-7/classes/GeneralObservations/variables/VISITDY","title":"Planned Study Day of Visit","type":"Class Variable"},"parentDataset":{"href":"/mdr/sdtmig/3-3/datasets/EG","title":"ECG Test Results","type":"SDTM Dataset"},"parentProduct":{"href":"/mdr/sdtmig/3-3","title":"Study Data Tabulation Model Implementation Guide: Human Clinical Trials Version 3.3 (Final)","type":"Implementation Guide"},"priorVersion":{"href":"/mdr/sdtmig/3-2/datasets/EG/variables/VISITDY","title":"Planned Study Day of Visit","type":"SDTM Dataset Variable"},"rootItem":{"href":"/mdr/root/sdtmig/datasets/EG/variables/VISITDY","title":"Version-agnostic anchor resource for SDTMIG variable EG.VISITDY","type":"Root Data Element"},"self":{"href":"/mdr/sdtmig/3-3/datasets/EG/variables/VISITDY","title":"Planned Study Day of Visit","type":"SDTM Dataset Variable"}},"core":"Perm","description":"Planned study day of the visit based upon RFSTDTC in Demographics.","label":"Planned Study Day of Visit","name":"VISITDY","ordinal":"34","role":"Timing","simpleDatatype":"Num"},{"_links":{"modelClassVariable":{"href":"/mdr/sdtm/1-7/classes/GeneralObservations/variables/TAETORD","title":"Planned Order of Element Within Arm","type":"Class Variable"},"parentDataset":{"href":"/mdr/sdtmig/3-3/datasets/EG","title":"ECG Test Results","type":"SDTM Dataset"},"parentProduct":{"href":"/mdr/sdtmig/3-3","title":"Study Data Tabulation Model Implementation Guide: Human Clinical Trials Version 3.3 (Final)","type":"Implementation Guide"},"rootItem":{"href":"/mdr/root/sdtmig/datasets/EG/variables/TAETORD","title":"Version-agnostic anchor resource for SDTMIG variable EG.TAETORD","type":"Root Data Element"},"self":{"href":"/mdr/sdtmig/3-3/datasets/EG/variables/TAETORD","title":"Planned Order of Element within Arm","type":"SDTM Dataset Variable"}},"core":"Perm","description":"Number that gives the planned order of the Element within the Arm for the element in which the assessment was made.","label":"Planned Order of Element within Arm","name":"TAETORD","ordinal":"35","role":"Timing","simpleDatatype":"Num"},{"_links":{"codelist":[{"href":"/mdr/root/ct/sdtmct/codelists/C99079","title":"Version-agnostic anchor resource for codelist C99079","type":"Root Value Domain"}],"modelClassVariable":{"href":"/mdr/sdtm/1-7/classes/GeneralObservations/variables/EPOCH","title":"Epoch","type":"Class Variable"},"parentDataset":{"href":"/mdr/sdtmig/3-3/datasets/EG","title":"ECG Test Results","type":"SDTM Dataset"},"parentProduct":{"href":"/mdr/sdtmig/3-3","title":"Study Data Tabulation Model Implementation Guide: Human Clinical Trials Version 3.3 (Final)","type":"Implementation Guide"},"rootItem":{"href":"/mdr/root/sdtmig/datasets/EG/variables/EPOCH","title":"Version-agnostic anchor resource for SDTMIG variable EG.EPOCH","type":"Root Data Element"},"self":{"href":"/mdr/sdtmig/3-3/datasets/EG/variables/EPOCH","title":"Epoch","type":"SDTM Dataset Variable"}},"core":"Perm","description":"Epoch associated with the date/time at which the assessment was made.","label":"Epoch","name":"EPOCH","ordinal":"36","role":"Timing","simpleDatatype":"Char"},{"_links":{"modelClassVariable":{"href":"/mdr/sdtm/1-7/classes/GeneralObservations/variables/--DTC","title":"Date/Time of Collection","type":"Class Variable"},"parentDataset":{"href":"/mdr/sdtmig/3-3/datasets/EG","title":"ECG Test Results","type":"SDTM Dataset"},"parentProduct":{"href":"/mdr/sdtmig/3-3","title":"Study Data Tabulation Model Implementation Guide: Human Clinical Trials Version 3.3 (Final)","type":"Implementation Guide"},"priorVersion":{"href":"/mdr/sdtmig/3-2/datasets/EG/variables/EGDTC","title":"Date/Time of ECG","type":"SDTM Dataset Variable"},"rootItem":{"href":"/mdr/root/sdtmig/datasets/EG/variables/EGDTC","title":"Version-agnostic anchor resource for SDTMIG variable EG.EGDTC","type":"Root Data Element"},"self":{"href":"/mdr/sdtmig/3-3/datasets/EG/variables/EGDTC","title":"Date/Time of ECG","type":"SDTM Dataset Variable"}},"core":"Exp","describedValueDomain":"ISO 8601","description":"Date/Time of ECG.","label":"Date/Time of ECG","name":"EGDTC","ordinal":"37","role":"Timing","simpleDatatype":"Char"},{"_links":{"modelClassVariable":{"href":"/mdr/sdtm/1-7/classes/GeneralObservations/variables/--DY","title":"Study Day of Visit/Collection/Exam","type":"Class Variable"},"parentDataset":{"href":"/mdr/sdtmig/3-3/datasets/EG","title":"ECG Test Results","type":"SDTM Dataset"},"parentProduct":{"href":"/mdr/sdtmig/3-3","title":"Study Data Tabulation Model Implementation Guide: Human Clinical Trials Version 3.3 (Final)","type":"Implementation Guide"},"priorVersion":{"href":"/mdr/sdtmig/3-2/datasets/EG/variables/EGDY","title":"Study Day of ECG","type":"SDTM Dataset Variable"},"rootItem":{"href":"/mdr/root/sdtmig/datasets/EG/variables/EGDY","title":"Version-agnostic anchor resource for SDTMIG variable EG.EGDY","type":"Root Data Element"},"self":{"href":"/mdr/sdtmig/3-3/datasets/EG/variables/EGDY","title":"Study Day of ECG","type":"SDTM Dataset Variable"}},"core":"Perm","description":"1. Study day of the ECG, measured as integer days.\n2. Algorithm for calculations must be relative to the sponsor-defined RFSTDTC variable in Demographics.","label":"Study Day of ECG","name":"EGDY","ordinal":"38","role":"Timing","simpleDatatype":"Num"},{"_links":{"modelClassVariable":{"href":"/mdr/sdtm/1-7/classes/GeneralObservations/variables/--TPT","title":"Planned Time Point Name","type":"Class Variable"},"parentDataset":{"href":"/mdr/sdtmig/3-3/datasets/EG","title":"ECG Test Results","type":"SDTM Dataset"},"parentProduct":{"href":"/mdr/sdtmig/3-3","title":"Study Data Tabulation Model Implementation Guide: Human Clinical Trials Version 3.3 (Final)","type":"Implementation Guide"},"priorVersion":{"href":"/mdr/sdtmig/3-2/datasets/EG/variables/EGTPT","title":"Planned Time Point Name","type":"SDTM Dataset Variable"},"rootItem":{"href":"/mdr/root/sdtmig/datasets/EG/variables/EGTPT","title":"Version-agnostic anchor resource for SDTMIG variable EG.EGTPT","type":"Root Data Element"},"self":{"href":"/mdr/sdtmig/3-3/datasets/EG/variables/EGTPT","title":"Planned Time Point Name","type":"SDTM Dataset Variable"}},"core":"Perm","description":"1. Text description of time when measurement should be taken.\n2. This may be represented as an elapsed time relative to a fixed reference point, such as time of last dose. See EGTPTNUM and EGTPTREF. Examples: \"Start\", \"5 min post\".","label":"Planned Time Point Name","name":"EGTPT","ordinal":"39","role":"Timing","simpleDatatype":"Char"},{"_links":{"modelClassVariable":{"href":"/mdr/sdtm/1-7/classes/GeneralObservations/variables/--TPTNUM","title":"Planned Time Point Number","type":"Class Variable"},"parentDataset":{"href":"/mdr/sdtmig/3-3/datasets/EG","title":"ECG Test Results","type":"SDTM Dataset"},"parentProduct":{"href":"/mdr/sdtmig/3-3","title":"Study Data Tabulation Model Implementation Guide: Human Clinical Trials Version 3.3 (Final)","type":"Implementation Guide"},"priorVersion":{"href":"/mdr/sdtmig/3-2/datasets/EG/variables/EGTPTNUM","title":"Planned Time Point Number","type":"SDTM Dataset Variable"},"rootItem":{"href":"/mdr/root/sdtmig/datasets/EG/variables/EGTPTNUM","title":"Version-agnostic anchor resource for SDTMIG variable EG.EGTPTNUM","type":"Root Data Element"},"self":{"href":"/mdr/sdtmig/3-3/datasets/EG/variables/EGTPTNUM","title":"Planned Time Point Number","type":"SDTM Dataset Variable"}},"core":"Perm","description":"Numerical version of EGTPT to aid in sorting.","label":"Planned Time Point Number","name":"EGTPTNUM","ordinal":"40","role":"Timing","simpleDatatype":"Num"},{"_links":{"modelClassVariable":{"href":"/mdr/sdtm/1-7/classes/GeneralObservations/variables/--ELTM","title":"Planned Elapsed Time from Time Point Ref","type":"Class Variable"},"parentDataset":{"href":"/mdr/sdtmig/3-3/datasets/EG","title":"ECG Test Results","type":"SDTM Dataset"},"parentProduct":{"href":"/mdr/sdtmig/3-3","title":"Study Data Tabulation Model Implementation Guide: Human Clinical Trials Version 3.3 (Final)","type":"Implementation Guide"},"priorVersion":{"href":"/mdr/sdtmig/3-2/datasets/EG/variables/EGELTM","title":"Planned Elapsed Time from Time Point Ref","type":"SDTM Dataset Variable"},"rootItem":{"href":"/mdr/root/sdtmig/datasets/EG/variables/EGELTM","title":"Version-agnostic anchor resource for SDTMIG variable EG.EGELTM","type":"Root Data Element"},"self":{"href":"/mdr/sdtmig/3-3/datasets/EG/variables/EGELTM","title":"Planned Elapsed Time from Time Point Ref","type":"SDTM Dataset Variable"}},"core":"Perm","describedValueDomain":"ISO 8601","description":"Planned elapsed time (in ISO 8601) relative to a fixed time point reference (EGTPTREF). Not a clock time or a date time variable. Represented as an ISO 8601 duration. Examples: \"-PT15M\" to represent the period of 15 minutes prior to the reference point indicated by EGTPTREF, or \"PT8H\" to represent the period of 8 hours after the reference point indicated by EGTPTREF.","label":"Planned Elapsed Time from Time Point Ref","name":"EGELTM","ordinal":"41","role":"Timing","simpleDatatype":"Char"},{"_links":{"modelClassVariable":{"href":"/mdr/sdtm/1-7/classes/GeneralObservations/variables/--TPTREF","title":"Time Point Reference","type":"Class Variable"},"parentDataset":{"href":"/mdr/sdtmig/3-3/datasets/EG","title":"ECG Test Results","type":"SDTM Dataset"},"parentProduct":{"href":"/mdr/sdtmig/3-3","title":"Study Data Tabulation Model Implementation Guide: Human Clinical Trials Version 3.3 (Final)","type":"Implementation Guide"},"priorVersion":{"href":"/mdr/sdtmig/3-2/datasets/EG/variables/EGTPTREF","title":"Time Point Reference","type":"SDTM Dataset Variable"},"rootItem":{"href":"/mdr/root/sdtmig/datasets/EG/variables/EGTPTREF","title":"Version-agnostic anchor resource for SDTMIG variable EG.EGTPTREF","type":"Root Data Element"},"self":{"href":"/mdr/sdtmig/3-3/datasets/EG/variables/EGTPTREF","title":"Time Point Reference","type":"SDTM Dataset Variable"}},"core":"Perm","description":"Name of the fixed reference point referred to by EGELTM, EGTPTNUM, and EGTPT. Examples: \"PREVIOUS DOSE\", \"PREVIOUS MEAL\".","label":"Time Point Reference","name":"EGTPTREF","ordinal":"42","role":"Timing","simpleDatatype":"Char"},{"_links":{"modelClassVariable":{"href":"/mdr/sdtm/1-7/classes/GeneralObservations/variables/--RFTDTC","title":"Date/Time of Reference Time Point","type":"Class Variable"},"parentDataset":{"href":"/mdr/sdtmig/3-3/datasets/EG","title":"ECG Test Results","type":"SDTM Dataset"},"parentProduct":{"href":"/mdr/sdtmig/3-3","title":"Study Data Tabulation Model Implementation Guide: Human Clinical Trials Version 3.3 (Final)","type":"Implementation Guide"},"priorVersion":{"href":"/mdr/sdtmig/3-2/datasets/EG/variables/EGRFTDTC","title":"Date/Time of Reference Time Point","type":"SDTM Dataset Variable"},"rootItem":{"href":"/mdr/root/sdtmig/datasets/EG/variables/EGRFTDTC","title":"Version-agnostic anchor resource for SDTMIG variable EG.EGRFTDTC","type":"Root Data Element"},"self":{"href":"/mdr/sdtmig/3-3/datasets/EG/variables/EGRFTDTC","title":"Date/Time of Reference Time Point","type":"SDTM Dataset Variable"}},"core":"Perm","describedValueDomain":"ISO 8601","description":"Date/time for a fixed reference time point defined by EGTPTREF.","label":"Date/Time of Reference Time Point","name":"EGRFTDTC","ordinal":"43","role":"Timing","simpleDatatype":"Char"}],"description":"A findings domain that contains ECG data, including position of the subject, method of evaluation, all cycle measurements and all findings from the ECG including an overall interpretation if collected or derived. (Source: CDISC Controlled Terminology, DOMAIN, C49626, 2018-06-29)","label":"ECG Test Results","name":"EG","ordinal":"21"}
