{"_links":{"modelDataset":{"href":"/mdr/sdtm/1-7/datasets/SUPPQUAL","title":"Supplemental Qualifiers","type":"SDTM Dataset"},"parentClass":{"href":"/mdr/sdtmig/3-3/classes/Relationship","title":"Relationship Datasets","type":"Class"},"parentProduct":{"href":"/mdr/sdtmig/3-3","title":"Study Data Tabulation Model Implementation Guide: Human Clinical Trials Version 3.3 (Final)","type":"Implementation Guide"},"self":{"href":"/mdr/sdtmig/3-3/datasets/SUPPQUAL","title":"Supplemental Qualifiers for [domain name]","type":"SDTM Dataset"}},"datasetStructure":"One record per IDVAR, IDVARVAL, and QNAM value per subject","datasetVariables":[{"_links":{"modelDatasetVariable":{"href":"/mdr/sdtm/1-7/datasets/SUPPQUAL/variables/STUDYID","title":"Study Identifier","type":"SDTM Dataset Variable"},"parentDataset":{"href":"/mdr/sdtmig/3-3/datasets/SUPPQUAL","title":"Supplemental Qualifiers for [domain name]","type":"SDTM Dataset"},"parentProduct":{"href":"/mdr/sdtmig/3-3","title":"Study Data Tabulation Model Implementation Guide: Human Clinical Trials Version 3.3 (Final)","type":"Implementation Guide"},"priorVersion":{"href":"/mdr/sdtmig/3-2/datasets/SUPPQUAL/variables/STUDYID","title":"Study Identifier","type":"SDTM Dataset Variable"},"rootItem":{"href":"/mdr/root/sdtmig/datasets/SUPPQUAL/variables/STUDYID","title":"Version-agnostic anchor resource for SDTMIG variable SUPPQUAL.STUDYID","type":"Root Data Element"},"self":{"href":"/mdr/sdtmig/3-3/datasets/SUPPQUAL/variables/STUDYID","title":"Study Identifier","type":"SDTM Dataset Variable"}},"core":"Req","description":"Study identifier of the parent record(s).","label":"Study Identifier","name":"STUDYID","ordinal":"1","role":"Identifier","simpleDatatype":"Char"},{"_links":{"codelist":[{"href":"/mdr/root/ct/sdtmct/codelists/C66734","title":"Version-agnostic anchor resource for codelist C66734","type":"Root Value Domain"}],"modelDatasetVariable":{"href":"/mdr/sdtm/1-7/datasets/SUPPQUAL/variables/RDOMAIN","title":"Related Domain Abbreviation","type":"SDTM Dataset Variable"},"parentDataset":{"href":"/mdr/sdtmig/3-3/datasets/SUPPQUAL","title":"Supplemental Qualifiers for [domain name]","type":"SDTM Dataset"},"parentProduct":{"href":"/mdr/sdtmig/3-3","title":"Study Data Tabulation Model Implementation Guide: Human Clinical Trials Version 3.3 (Final)","type":"Implementation Guide"},"priorVersion":{"href":"/mdr/sdtmig/3-2/datasets/SUPPQUAL/variables/RDOMAIN","title":"Related Domain Abbreviation","type":"SDTM Dataset Variable"},"rootItem":{"href":"/mdr/root/sdtmig/datasets/SUPPQUAL/variables/RDOMAIN","title":"Version-agnostic anchor resource for SDTMIG variable SUPPQUAL.RDOMAIN","type":"Root Data Element"},"self":{"href":"/mdr/sdtmig/3-3/datasets/SUPPQUAL/variables/RDOMAIN","title":"Related Domain Abbreviation","type":"SDTM Dataset Variable"}},"core":"Req","description":"Two-character abbreviation for the domain of the parent record(s).","label":"Related Domain Abbreviation","name":"RDOMAIN","ordinal":"2","role":"Identifier","simpleDatatype":"Char"},{"_links":{"modelDatasetVariable":{"href":"/mdr/sdtm/1-7/datasets/SUPPQUAL/variables/USUBJID","title":"Unique Subject Identifier","type":"SDTM Dataset Variable"},"parentDataset":{"href":"/mdr/sdtmig/3-3/datasets/SUPPQUAL","title":"Supplemental Qualifiers for [domain name]","type":"SDTM Dataset"},"parentProduct":{"href":"/mdr/sdtmig/3-3","title":"Study Data Tabulation Model Implementation Guide: Human Clinical Trials Version 3.3 (Final)","type":"Implementation Guide"},"priorVersion":{"href":"/mdr/sdtmig/3-2/datasets/SUPPQUAL/variables/USUBJID","title":"Unique Subject Identifier","type":"SDTM Dataset Variable"},"rootItem":{"href":"/mdr/root/sdtmig/datasets/SUPPQUAL/variables/USUBJID","title":"Version-agnostic anchor resource for SDTMIG variable SUPPQUAL.USUBJID","type":"Root Data Element"},"self":{"href":"/mdr/sdtmig/3-3/datasets/SUPPQUAL/variables/USUBJID","title":"Unique Subject Identifier","type":"SDTM Dataset Variable"}},"core":"Req","description":"Unique subject identifier of the parent record(s).","label":"Unique Subject Identifier","name":"USUBJID","ordinal":"3","role":"Identifier","simpleDatatype":"Char"},{"_links":{"modelDatasetVariable":{"href":"/mdr/sdtm/1-7/datasets/SUPPQUAL/variables/IDVAR","title":"Identifying Variable","type":"SDTM Dataset Variable"},"parentDataset":{"href":"/mdr/sdtmig/3-3/datasets/SUPPQUAL","title":"Supplemental Qualifiers for [domain name]","type":"SDTM Dataset"},"parentProduct":{"href":"/mdr/sdtmig/3-3","title":"Study Data Tabulation Model Implementation Guide: Human Clinical Trials Version 3.3 (Final)","type":"Implementation Guide"},"priorVersion":{"href":"/mdr/sdtmig/3-2/datasets/SUPPQUAL/variables/IDVAR","title":"Identifying Variable","type":"SDTM Dataset Variable"},"rootItem":{"href":"/mdr/root/sdtmig/datasets/SUPPQUAL/variables/IDVAR","title":"Version-agnostic anchor resource for SDTMIG variable SUPPQUAL.IDVAR","type":"Root Data Element"},"self":{"href":"/mdr/sdtmig/3-3/datasets/SUPPQUAL/variables/IDVAR","title":"Identifying Variable","type":"SDTM Dataset Variable"}},"core":"Exp","description":"Identifying variable in the dataset that identifies the related record(s). Examples: --SEQ, --GRPID.","label":"Identifying Variable","name":"IDVAR","ordinal":"4","role":"Identifier","simpleDatatype":"Char"},{"_links":{"modelDatasetVariable":{"href":"/mdr/sdtm/1-7/datasets/SUPPQUAL/variables/IDVARVAL","title":"Identifying Variable Value","type":"SDTM Dataset Variable"},"parentDataset":{"href":"/mdr/sdtmig/3-3/datasets/SUPPQUAL","title":"Supplemental Qualifiers for [domain name]","type":"SDTM Dataset"},"parentProduct":{"href":"/mdr/sdtmig/3-3","title":"Study Data Tabulation Model Implementation Guide: Human Clinical Trials Version 3.3 (Final)","type":"Implementation Guide"},"priorVersion":{"href":"/mdr/sdtmig/3-2/datasets/SUPPQUAL/variables/IDVARVAL","title":"Identifying Variable Value","type":"SDTM Dataset Variable"},"rootItem":{"href":"/mdr/root/sdtmig/datasets/SUPPQUAL/variables/IDVARVAL","title":"Version-agnostic anchor resource for SDTMIG variable SUPPQUAL.IDVARVAL","type":"Root Data Element"},"self":{"href":"/mdr/sdtmig/3-3/datasets/SUPPQUAL/variables/IDVARVAL","title":"Identifying Variable Value","type":"SDTM Dataset Variable"}},"core":"Exp","description":"Value of identifying variable of the parent record(s).","label":"Identifying Variable Value","name":"IDVARVAL","ordinal":"5","role":"Identifier","simpleDatatype":"Char"},{"_links":{"modelDatasetVariable":{"href":"/mdr/sdtm/1-7/datasets/SUPPQUAL/variables/QNAM","title":"Qualifier Variable Name","type":"SDTM Dataset Variable"},"parentDataset":{"href":"/mdr/sdtmig/3-3/datasets/SUPPQUAL","title":"Supplemental Qualifiers for [domain name]","type":"SDTM Dataset"},"parentProduct":{"href":"/mdr/sdtmig/3-3","title":"Study Data Tabulation Model Implementation Guide: Human Clinical Trials Version 3.3 (Final)","type":"Implementation Guide"},"priorVersion":{"href":"/mdr/sdtmig/3-2/datasets/SUPPQUAL/variables/QNAM","title":"Qualifier Variable Name","type":"SDTM Dataset Variable"},"rootItem":{"href":"/mdr/root/sdtmig/datasets/SUPPQUAL/variables/QNAM","title":"Version-agnostic anchor resource for SDTMIG variable SUPPQUAL.QNAM","type":"Root Data Element"},"self":{"href":"/mdr/sdtmig/3-3/datasets/SUPPQUAL/variables/QNAM","title":"Qualifier Variable Name","type":"SDTM Dataset Variable"}},"core":"Req","description":"The short name of the Qualifier variable, which is used as a column name in a domain view with data from the parent domain. The value in QNAM cannot be longer than 8 characters, nor can it start with a number (e.g., \"1TEST\" is not valid). QNAM cannot contain characters other than letters, numbers, or underscores. This will often be the column name in the sponsor's operational dataset.","label":"Qualifier Variable Name","name":"QNAM","ordinal":"6","role":"Topic","simpleDatatype":"Char"},{"_links":{"modelDatasetVariable":{"href":"/mdr/sdtm/1-7/datasets/SUPPQUAL/variables/QLABEL","title":"Qualifier Variable Label","type":"SDTM Dataset Variable"},"parentDataset":{"href":"/mdr/sdtmig/3-3/datasets/SUPPQUAL","title":"Supplemental Qualifiers for [domain name]","type":"SDTM Dataset"},"parentProduct":{"href":"/mdr/sdtmig/3-3","title":"Study Data Tabulation Model Implementation Guide: Human Clinical Trials Version 3.3 (Final)","type":"Implementation Guide"},"priorVersion":{"href":"/mdr/sdtmig/3-2/datasets/SUPPQUAL/variables/QLABEL","title":"Qualifier Variable Label","type":"SDTM Dataset Variable"},"rootItem":{"href":"/mdr/root/sdtmig/datasets/SUPPQUAL/variables/QLABEL","title":"Version-agnostic anchor resource for SDTMIG variable SUPPQUAL.QLABEL","type":"Root Data Element"},"self":{"href":"/mdr/sdtmig/3-3/datasets/SUPPQUAL/variables/QLABEL","title":"Qualifier Variable Label","type":"SDTM Dataset Variable"}},"core":"Req","description":"This is the long name or label associated with QNAM. The value in QLABEL cannot be longer than 40 characters. This will often be the column label in the sponsor's original dataset.","label":"Qualifier Variable Label","name":"QLABEL","ordinal":"7","role":"Synonym Qualifier","simpleDatatype":"Char"},{"_links":{"modelDatasetVariable":{"href":"/mdr/sdtm/1-7/datasets/SUPPQUAL/variables/QVAL","title":"Data Value","type":"SDTM Dataset Variable"},"parentDataset":{"href":"/mdr/sdtmig/3-3/datasets/SUPPQUAL","title":"Supplemental Qualifiers for [domain name]","type":"SDTM Dataset"},"parentProduct":{"href":"/mdr/sdtmig/3-3","title":"Study Data Tabulation Model Implementation Guide: Human Clinical Trials Version 3.3 (Final)","type":"Implementation Guide"},"priorVersion":{"href":"/mdr/sdtmig/3-2/datasets/SUPPQUAL/variables/QVAL","title":"Data Value","type":"SDTM Dataset Variable"},"rootItem":{"href":"/mdr/root/sdtmig/datasets/SUPPQUAL/variables/QVAL","title":"Version-agnostic anchor resource for SDTMIG variable SUPPQUAL.QVAL","type":"Root Data Element"},"self":{"href":"/mdr/sdtmig/3-3/datasets/SUPPQUAL/variables/QVAL","title":"Data Value","type":"SDTM Dataset Variable"}},"core":"Req","description":"Result of, response to, or value associated with QNAM. A value for this column is required; no records can be in SUPP-- with a null value for QVAL.","label":"Data Value","name":"QVAL","ordinal":"8","role":"Result Qualifier","simpleDatatype":"Char"},{"_links":{"modelDatasetVariable":{"href":"/mdr/sdtm/1-7/datasets/SUPPQUAL/variables/QORIG","title":"Origin","type":"SDTM Dataset Variable"},"parentDataset":{"href":"/mdr/sdtmig/3-3/datasets/SUPPQUAL","title":"Supplemental Qualifiers for [domain name]","type":"SDTM Dataset"},"parentProduct":{"href":"/mdr/sdtmig/3-3","title":"Study Data Tabulation Model Implementation Guide: Human Clinical Trials Version 3.3 (Final)","type":"Implementation Guide"},"priorVersion":{"href":"/mdr/sdtmig/3-2/datasets/SUPPQUAL/variables/QORIG","title":"Origin","type":"SDTM Dataset Variable"},"rootItem":{"href":"/mdr/root/sdtmig/datasets/SUPPQUAL/variables/QORIG","title":"Version-agnostic anchor resource for SDTMIG variable SUPPQUAL.QORIG","type":"Root Data Element"},"self":{"href":"/mdr/sdtmig/3-3/datasets/SUPPQUAL/variables/QORIG","title":"Origin","type":"SDTM Dataset Variable"}},"core":"Req","description":"Since QVAL can represent a mixture of collected (on a CRF), derived, or assigned items, QORIG is used to indicate the origin of this data. Examples include \"CRF\", \"Assigned\", or \"Derived\". See Section 4.1.8, Origin Metadata.","label":"Origin","name":"QORIG","ordinal":"9","role":"Record Qualifier","simpleDatatype":"Char"},{"_links":{"modelDatasetVariable":{"href":"/mdr/sdtm/1-7/datasets/SUPPQUAL/variables/QEVAL","title":"Evaluator","type":"SDTM Dataset Variable"},"parentDataset":{"href":"/mdr/sdtmig/3-3/datasets/SUPPQUAL","title":"Supplemental Qualifiers for [domain name]","type":"SDTM Dataset"},"parentProduct":{"href":"/mdr/sdtmig/3-3","title":"Study Data Tabulation Model Implementation Guide: Human Clinical Trials Version 3.3 (Final)","type":"Implementation Guide"},"priorVersion":{"href":"/mdr/sdtmig/3-2/datasets/SUPPQUAL/variables/QEVAL","title":"Evaluator","type":"SDTM Dataset Variable"},"rootItem":{"href":"/mdr/root/sdtmig/datasets/SUPPQUAL/variables/QEVAL","title":"Version-agnostic anchor resource for SDTMIG variable SUPPQUAL.QEVAL","type":"Root Data Element"},"self":{"href":"/mdr/sdtmig/3-3/datasets/SUPPQUAL/variables/QEVAL","title":"Evaluator","type":"SDTM Dataset Variable"}},"core":"Exp","description":"Used only for results that are subjective (e.g., assigned by a person or a group). Should be null for records that contain objectively collected or derived data. Some examples include \"ADJUDICATION COMMITTEE\", \"STATISTICIAN\", \"DATABASE ADMINISTRATOR\", \"CLINICAL COORDINATOR\", etc.","label":"Evaluator","name":"QEVAL","ordinal":"10","role":"Record Qualifier","simpleDatatype":"Char"}],"label":"Supplemental Qualifiers for [domain name]","name":"SUPPQUAL","ordinal":"57"}
